# n +  28Si   : (n,a)             Total
# Q-value    =-2.65360E+00
# E-threshold= 2.74928E+00
# # energies =    50
#     E          xs       gamma xs  xs/res.prod.xs
 1.00000E-01 0.00000E+00 0.00000E+00 0.00000E+00
 2.00000E-01 0.00000E+00 0.00000E+00 0.00000E+00
 4.00000E-01 0.00000E+00 0.00000E+00 0.00000E+00
 6.00000E-01 0.00000E+00 0.00000E+00 0.00000E+00
 8.00000E-01 0.00000E+00 0.00000E+00 0.00000E+00
 1.00000E+00 0.00000E+00 0.00000E+00 0.00000E+00
 1.20000E+00 0.00000E+00 0.00000E+00 0.00000E+00
 1.40000E+00 0.00000E+00 0.00000E+00 0.00000E+00
 1.60000E+00 0.00000E+00 0.00000E+00 0.00000E+00
 1.80000E+00 0.00000E+00 0.00000E+00 0.00000E+00
 2.00000E+00 0.00000E+00 0.00000E+00 0.00000E+00
 2.20000E+00 0.00000E+00 0.00000E+00 0.00000E+00
 2.40000E+00 0.00000E+00 0.00000E+00 0.00000E+00
 2.60000E+00 0.00000E+00 0.00000E+00 0.00000E+00
 2.80000E+00 0.00000E+00 0.00000E+00 0.00000E+00
 3.00000E+00 0.00000E+00 0.00000E+00 0.00000E+00
 3.20000E+00 0.00000E+00 0.00000E+00 0.00000E+00
 3.40000E+00 0.00000E+00 0.00000E+00 0.00000E+00
 3.60000E+00 0.00000E+00 0.00000E+00 0.00000E+00
 3.80000E+00 0.00000E+00 0.00000E+00 0.00000E+00
 4.00000E+00 1.13181E-05 0.00000E+00 0.00000E+00
 4.20000E+00 2.45611E-04 0.00000E+00 0.00000E+00
 4.40000E+00 2.62312E-03 0.00000E+00 1.00000E+00
 4.60000E+00 1.72923E-02 4.35768E-06 1.00000E+00
 4.80000E+00 7.89733E-02 9.79166E-05 1.00000E+00
 5.00000E+00 2.72825E-01 1.03544E-03 1.00000E+00
 5.20000E+00 7.85890E-01 6.61696E-03 1.00000E+00
 5.40000E+00 1.92887E+00 2.98674E-02 1.00000E+00
 5.60000E+00 4.19540E+00 1.10738E-01 1.00000E+00
 5.80000E+00 8.20857E+00 3.37690E-01 1.00000E+00
 6.00000E+00 1.46274E+01 8.86291E-01 1.00000E+00
 6.20000E+00 2.39946E+01 2.04373E+00 1.00000E+00
 6.40000E+00 3.65726E+01 4.21171E+00 1.00000E+00
 6.60000E+00 5.10581E+01 7.77786E+00 1.00000E+00
 6.80000E+00 6.71304E+01 1.31100E+01 1.00000E+00
 7.00000E+00 8.46414E+01 2.04084E+01 1.00000E+00
 7.20000E+00 1.00742E+02 2.93569E+01 1.00000E+00
 7.40000E+00 1.13472E+02 3.91394E+01 9.99999E-01
 7.60000E+00 1.26505E+02 5.06545E+01 9.99999E-01
 7.80000E+00 1.36685E+02 6.19275E+01 9.99999E-01
 8.00000E+00 1.46907E+02 7.42779E+01 9.99998E-01
 8.50000E+00 1.68653E+02 1.08403E+02 9.99997E-01
 9.00000E+00 1.81789E+02 1.43320E+02 9.99995E-01
 9.50000E+00 1.88080E+02 1.76652E+02 9.99992E-01
 1.00000E+01 1.91336E+02 2.08072E+02 9.99988E-01
 1.20000E+01 1.82390E+02 2.79055E+02 9.99952E-01
 1.40000E+01 1.69018E+02 3.04587E+02 9.99888E-01
 1.60000E+01 1.27700E+02 2.51174E+02 9.99747E-01
 1.80000E+01 7.45428E+01 1.53157E+02 9.99388E-01
 2.00000E+01 4.15942E+01 8.77290E+01 9.98700E-01
