# n +  28Si   : (n,n')            Total
# Q-value    = 0.00000E+00
# E-threshold= 1.84317E+00
# # energies =    50
#     E          xs       gamma xs  xs/res.prod.xs
 1.00000E-01 0.00000E+00 0.00000E+00 0.00000E+00
 2.00000E-01 0.00000E+00 0.00000E+00 0.00000E+00
 4.00000E-01 0.00000E+00 0.00000E+00 0.00000E+00
 6.00000E-01 0.00000E+00 0.00000E+00 0.00000E+00
 8.00000E-01 0.00000E+00 0.00000E+00 0.00000E+00
 1.00000E+00 0.00000E+00 0.00000E+00 0.00000E+00
 1.20000E+00 0.00000E+00 0.00000E+00 0.00000E+00
 1.40000E+00 0.00000E+00 0.00000E+00 0.00000E+00
 1.60000E+00 0.00000E+00 0.00000E+00 0.00000E+00
 1.80000E+00 0.00000E+00 0.00000E+00 0.00000E+00
 2.00000E+00 2.73407E+02 2.73407E+02 9.99989E-01
 2.20000E+00 4.25746E+02 4.25746E+02 9.99993E-01
 2.40000E+00 4.98279E+02 4.98279E+02 9.99993E-01
 2.60000E+00 5.37723E+02 5.37723E+02 9.99992E-01
 2.80000E+00 5.62397E+02 5.62397E+02 9.99991E-01
 3.00000E+00 5.79989E+02 5.79989E+02 9.99989E-01
 3.20000E+00 5.93923E+02 5.93923E+02 9.99987E-01
 3.40000E+00 6.05804E+02 6.05804E+02 9.99984E-01
 3.60000E+00 6.16409E+02 6.16409E+02 9.99980E-01
 3.80000E+00 6.26110E+02 6.26110E+02 9.99975E-01
 4.00000E+00 6.35078E+02 6.35078E+02 9.99970E-01
 4.20000E+00 6.43391E+02 6.43391E+02 9.99964E-01
 4.40000E+00 6.51058E+02 6.51058E+02 9.99957E-01
 4.60000E+00 6.58032E+02 6.58032E+02 9.99949E-01
 4.80000E+00 6.66542E+02 6.72920E+02 9.99942E-01
 5.00000E+00 6.93663E+02 7.55205E+02 9.99939E-01
 5.20000E+00 7.13256E+02 8.15884E+02 9.99933E-01
 5.40000E+00 7.32202E+02 8.79900E+02 9.99929E-01
 5.60000E+00 7.37641E+02 9.12480E+02 9.99921E-01
 5.80000E+00 7.31950E+02 9.21421E+02 9.99911E-01
 6.00000E+00 7.17837E+02 9.14397E+02 9.99900E-01
 6.20000E+00 6.97540E+02 8.96573E+02 9.99885E-01
 6.40000E+00 6.72896E+02 8.71481E+02 9.99869E-01
 6.60000E+00 6.55613E+02 8.72129E+02 9.99857E-01
 6.80000E+00 6.43985E+02 8.89074E+02 9.99848E-01
 7.00000E+00 6.27427E+02 8.89600E+02 9.99832E-01
 7.20000E+00 6.17649E+02 8.96170E+02 9.99824E-01
 7.40000E+00 6.17761E+02 9.11717E+02 9.99824E-01
 7.60000E+00 6.07338E+02 9.06268E+02 9.99817E-01
 7.80000E+00 6.05032E+02 9.06514E+02 9.99811E-01
 8.00000E+00 6.00928E+02 8.99504E+02 9.99804E-01
 8.50000E+00 5.80512E+02 8.87025E+02 9.99779E-01
 9.00000E+00 5.64078E+02 8.95768E+02 9.99750E-01
 9.50000E+00 5.51406E+02 9.08628E+02 9.99726E-01
 1.00000E+01 5.38153E+02 9.18599E+02 9.99673E-01
 1.20000E+01 5.16668E+02 9.95597E+02 9.99522E-01
 1.40000E+01 3.86190E+02 7.89984E+02 9.99179E-01
 1.60000E+01 2.40481E+02 4.90731E+02 9.98447E-01
 1.80000E+01 1.60688E+02 3.21215E+02 9.97378E-01
 2.00000E+01 1.20355E+02 2.33843E+02 9.96001E-01
