# n +  28Si   : (n,n')            Total
# Q-value    = 0.00000E+00
# E-threshold= 1.84317E+00
# # energies =    50
#     E          xs       gamma xs  xs/res.prod.xs
 1.00000E-01 0.00000E+00 0.00000E+00 0.00000E+00
 2.00000E-01 0.00000E+00 0.00000E+00 0.00000E+00
 4.00000E-01 0.00000E+00 0.00000E+00 0.00000E+00
 6.00000E-01 0.00000E+00 0.00000E+00 0.00000E+00
 8.00000E-01 0.00000E+00 0.00000E+00 0.00000E+00
 1.00000E+00 0.00000E+00 0.00000E+00 0.00000E+00
 1.20000E+00 0.00000E+00 0.00000E+00 0.00000E+00
 1.40000E+00 0.00000E+00 0.00000E+00 0.00000E+00
 1.60000E+00 0.00000E+00 0.00000E+00 0.00000E+00
 1.80000E+00 0.00000E+00 0.00000E+00 0.00000E+00
 2.00000E+00 2.77595E+02 2.77595E+02 9.99990E-01
 2.20000E+00 4.19171E+02 4.19171E+02 9.99993E-01
 2.40000E+00 4.92440E+02 4.92440E+02 9.99993E-01
 2.60000E+00 5.37197E+02 5.37197E+02 9.99992E-01
 2.80000E+00 5.68178E+02 5.68178E+02 9.99991E-01
 3.00000E+00 5.91823E+02 5.91823E+02 9.99989E-01
 3.20000E+00 6.06671E+02 6.06671E+02 9.99987E-01
 3.40000E+00 6.23369E+02 6.23369E+02 9.99983E-01
 3.60000E+00 6.38295E+02 6.38295E+02 9.99980E-01
 3.80000E+00 6.51398E+02 6.51398E+02 9.99975E-01
 4.00000E+00 6.62529E+02 6.62529E+02 9.99971E-01
 4.20000E+00 6.72732E+02 6.72732E+02 9.99964E-01
 4.40000E+00 6.82203E+02 6.82203E+02 9.99958E-01
 4.60000E+00 6.90898E+02 6.90898E+02 9.99950E-01
 4.80000E+00 7.01209E+02 7.09117E+02 9.99943E-01
 5.00000E+00 7.28466E+02 7.89773E+02 9.99940E-01
 5.20000E+00 7.49564E+02 8.50791E+02 9.99934E-01
 5.40000E+00 7.69525E+02 9.14704E+02 9.99930E-01
 5.60000E+00 7.75200E+02 9.46490E+02 9.99922E-01
 5.80000E+00 7.69983E+02 9.56363E+02 9.99912E-01
 6.00000E+00 7.56561E+02 9.51523E+02 9.99901E-01
 6.20000E+00 7.37049E+02 9.36524E+02 9.99887E-01
 6.40000E+00 7.13185E+02 9.14471E+02 9.99872E-01
 6.60000E+00 6.98278E+02 9.23171E+02 9.99861E-01
 6.80000E+00 6.86571E+02 9.40647E+02 9.99852E-01
 7.00000E+00 6.69666E+02 9.41216E+02 9.99837E-01
 7.20000E+00 6.60858E+02 9.50224E+02 9.99830E-01
 7.40000E+00 6.59572E+02 9.64293E+02 9.99829E-01
 7.60000E+00 6.47648E+02 9.57480E+02 9.99820E-01
 7.80000E+00 6.46920E+02 9.61042E+02 9.99815E-01
 8.00000E+00 6.41768E+02 9.54234E+02 9.99807E-01
 8.50000E+00 6.21024E+02 9.44765E+02 9.99784E-01
 9.00000E+00 6.04499E+02 9.54740E+02 9.99756E-01
 9.50000E+00 5.89911E+02 9.64889E+02 9.99731E-01
 1.00000E+01 5.75962E+02 9.75203E+02 9.99681E-01
 1.20000E+01 5.47209E+02 1.03878E+03 9.99536E-01
 1.40000E+01 4.14689E+02 8.28644E+02 9.99227E-01
 1.60000E+01 2.68304E+02 5.29948E+02 9.98609E-01
 1.80000E+01 1.85607E+02 3.55764E+02 9.97747E-01
 2.00000E+01 1.43062E+02 2.64959E+02 9.96676E-01
