# n + 208Pb: Gamma-ray intensity - 208Pb: Level  7 --> Level  3 - gamma energy    0.486084
# E-initial  =   3.961162 E-final=   3.475078
# E-threshold= 3.98037E+00
# # energies =    67
#    E           xs
 1.00000E-11 0.00000E+00
 2.53000E-08 0.00000E+00
 2.00000E-07 0.00000E+00
 1.00000E-06 0.00000E+00
 1.00000E-03 0.00000E+00
 2.00000E-03 0.00000E+00
 5.00000E-03 0.00000E+00
 1.00000E-02 0.00000E+00
 2.00000E-02 0.00000E+00
 5.00000E-02 0.00000E+00
 1.00000E-01 0.00000E+00
 2.00000E-01 0.00000E+00
 3.00000E-01 0.00000E+00
 4.00000E-01 0.00000E+00
 5.00000E-01 0.00000E+00
 7.50000E-01 0.00000E+00
 1.00000E+00 0.00000E+00
 1.20000E+00 0.00000E+00
 1.40000E+00 0.00000E+00
 1.60000E+00 0.00000E+00
 1.80000E+00 0.00000E+00
 2.00000E+00 0.00000E+00
 2.20000E+00 0.00000E+00
 2.40000E+00 0.00000E+00
 2.60000E+00 0.00000E+00
 2.80000E+00 0.00000E+00
 3.00000E+00 0.00000E+00
 3.20000E+00 0.00000E+00
 3.40000E+00 0.00000E+00
 3.60000E+00 0.00000E+00
 3.80000E+00 0.00000E+00
 4.00000E+00 2.57182E-01
 4.20000E+00 8.88708E-01
 4.40000E+00 1.19663E+00
 4.60000E+00 1.37080E+00
 4.80000E+00 1.47865E+00
 5.00000E+00 1.53244E+00
 5.50000E+00 1.54404E+00
 6.00000E+00 1.50236E+00
 6.50000E+00 1.45641E+00
 7.00000E+00 1.43423E+00
 7.50000E+00 1.44086E+00
 8.00000E+00 1.42050E+00
 8.50000E+00 1.30801E+00
 9.00000E+00 1.10820E+00
 9.50000E+00 8.83095E-01
 1.00000E+01 6.74158E-01
 1.10000E+01 3.77382E-01
 1.20000E+01 2.33031E-01
 1.30000E+01 1.70365E-01
 1.40000E+01 1.42227E-01
 1.50000E+01 1.27334E-01
 1.60000E+01 1.17363E-01
 1.70000E+01 1.10818E-01
 1.80000E+01 1.04036E-01
 1.90000E+01 9.85073E-02
 2.00000E+01 9.35928E-02
 2.10000E+01 8.88086E-02
 2.20000E+01 8.48370E-02
 2.30000E+01 8.05857E-02
 2.40000E+01 7.62072E-02
 2.50000E+01 7.23485E-02
 2.60000E+01 6.86878E-02
 2.70000E+01 6.56584E-02
 2.80000E+01 6.28618E-02
 2.90000E+01 6.07406E-02
 3.00000E+01 5.80114E-02
