# n + 208Pb: Gamma-ray intensity - 208Pb: Level 25 --> Level  2 - gamma energy    1.283035
# E-initial  =   4.480746 E-final=   3.197711
# E-threshold= 4.50248E+00
# # energies =    67
#    E           xs
 1.00000E-11 0.00000E+00
 2.53000E-08 0.00000E+00
 2.00000E-07 0.00000E+00
 1.00000E-06 0.00000E+00
 1.00000E-03 0.00000E+00
 2.00000E-03 0.00000E+00
 5.00000E-03 0.00000E+00
 1.00000E-02 0.00000E+00
 2.00000E-02 0.00000E+00
 5.00000E-02 0.00000E+00
 1.00000E-01 0.00000E+00
 2.00000E-01 0.00000E+00
 3.00000E-01 0.00000E+00
 4.00000E-01 0.00000E+00
 5.00000E-01 0.00000E+00
 7.50000E-01 0.00000E+00
 1.00000E+00 0.00000E+00
 1.20000E+00 0.00000E+00
 1.40000E+00 0.00000E+00
 1.60000E+00 0.00000E+00
 1.80000E+00 0.00000E+00
 2.00000E+00 0.00000E+00
 2.20000E+00 0.00000E+00
 2.40000E+00 0.00000E+00
 2.60000E+00 0.00000E+00
 2.80000E+00 0.00000E+00
 3.00000E+00 0.00000E+00
 3.20000E+00 0.00000E+00
 3.40000E+00 0.00000E+00
 3.60000E+00 0.00000E+00
 3.80000E+00 0.00000E+00
 4.00000E+00 0.00000E+00
 4.20000E+00 0.00000E+00
 4.40000E+00 0.00000E+00
 4.60000E+00 7.39089E+00
 4.80000E+00 1.47396E+01
 5.00000E+00 2.00974E+01
 5.50000E+00 2.52114E+01
 6.00000E+00 2.67535E+01
 6.50000E+00 2.86209E+01
 7.00000E+00 3.05347E+01
 7.50000E+00 3.26190E+01
 8.00000E+00 3.45390E+01
 8.50000E+00 3.49198E+01
 9.00000E+00 3.23021E+01
 9.50000E+00 2.74410E+01
 1.00000E+01 2.17435E+01
 1.10000E+01 1.22744E+01
 1.20000E+01 6.87366E+00
 1.30000E+01 4.44419E+00
 1.40000E+01 3.40710E+00
 1.50000E+01 2.92135E+00
 1.60000E+01 2.67375E+00
 1.70000E+01 2.54358E+00
 1.80000E+01 2.37748E+00
 1.90000E+01 2.24767E+00
 2.00000E+01 2.12463E+00
 2.10000E+01 2.00803E+00
 2.20000E+01 1.93738E+00
 2.30000E+01 1.83453E+00
 2.40000E+01 1.70881E+00
 2.50000E+01 1.62614E+00
 2.60000E+01 1.53768E+00
 2.70000E+01 1.42963E+00
 2.80000E+01 1.36436E+00
 2.90000E+01 1.32237E+00
 3.00000E+01 1.19985E+00
