# n + 208Pb: Gamma-ray intensity - 209Pb: Level  1 --> Level  0 - gamma energy    0.778800
# E-initial  =   0.778800 E-final=   0.000000
# E-threshold= 0.00000E+00
# # energies =    67
#    E           xs
 1.00000E-11 0.00000E+00
 2.53000E-08 0.00000E+00
 2.00000E-07 0.00000E+00
 1.00000E-06 1.31116E-04
 1.00000E-03 1.51632E-04
 2.00000E-03 2.71549E-04
 5.00000E-03 4.14961E-04
 1.00000E-02 3.56403E-04
 2.00000E-02 2.34068E-04
 5.00000E-02 2.87100E-04
 1.00000E-01 9.31494E-04
 2.00000E-01 3.35130E-03
 3.00000E-01 6.82448E-03
 4.00000E-01 1.13704E-02
 5.00000E-01 1.77271E-02
 7.50000E-01 3.53322E-02
 1.00000E+00 5.31369E-02
 1.20000E+00 6.69263E-02
 1.40000E+00 8.38039E-02
 1.60000E+00 1.02899E-01
 1.80000E+00 1.26051E-01
 2.00000E+00 1.54423E-01
 2.20000E+00 1.88981E-01
 2.40000E+00 2.30512E-01
 2.60000E+00 2.81090E-01
 2.80000E+00 2.73519E-01
 3.00000E+00 2.61137E-01
 3.20000E+00 2.61933E-01
 3.40000E+00 1.40931E-01
 3.60000E+00 1.22733E-01
 3.80000E+00 1.07182E-01
 4.00000E+00 9.27494E-02
 4.20000E+00 7.73828E-02
 4.40000E+00 6.33862E-02
 4.60000E+00 5.53341E-02
 4.80000E+00 7.91606E-02
 5.00000E+00 8.05029E-02
 5.50000E+00 8.27557E-02
 6.00000E+00 8.78452E-02
 6.50000E+00 9.75470E-02
 7.00000E+00 1.13742E-01
 7.50000E+00 1.36715E-01
 8.00000E+00 1.67229E-01
 8.50000E+00 2.03685E-01
 9.00000E+00 2.43028E-01
 9.50000E+00 2.80107E-01
 1.00000E+01 3.02987E-01
 1.10000E+01 3.46625E-01
 1.20000E+01 3.51752E-01
 1.30000E+01 3.41794E-01
 1.40000E+01 3.22157E-01
 1.50000E+01 2.89731E-01
 1.60000E+01 2.47451E-01
 1.70000E+01 2.07770E-01
 1.80000E+01 1.73616E-01
 1.90000E+01 1.44831E-01
 2.00000E+01 1.23922E-01
 2.10000E+01 1.07788E-01
 2.20000E+01 9.63319E-02
 2.30000E+01 8.63831E-02
 2.40000E+01 7.80966E-02
 2.50000E+01 7.22641E-02
 2.60000E+01 6.64951E-02
 2.70000E+01 6.21675E-02
 2.80000E+01 5.86072E-02
 2.90000E+01 5.55990E-02
 3.00000E+01 5.24430E-02
