# n + 208Pb: Gamma-ray intensity - 208Pb: Level 29 --> Level  2 - gamma energy    1.511016
# E-initial  =   4.708727 E-final=   3.197711
# E-threshold= 4.73156E+00
# # energies =    67
#    E           xs
 1.00000E-11 0.00000E+00
 2.53000E-08 0.00000E+00
 2.00000E-07 0.00000E+00
 1.00000E-06 0.00000E+00
 1.00000E-03 0.00000E+00
 2.00000E-03 0.00000E+00
 5.00000E-03 0.00000E+00
 1.00000E-02 0.00000E+00
 2.00000E-02 0.00000E+00
 5.00000E-02 0.00000E+00
 1.00000E-01 0.00000E+00
 2.00000E-01 0.00000E+00
 3.00000E-01 0.00000E+00
 4.00000E-01 0.00000E+00
 5.00000E-01 0.00000E+00
 7.50000E-01 0.00000E+00
 1.00000E+00 0.00000E+00
 1.20000E+00 0.00000E+00
 1.40000E+00 0.00000E+00
 1.60000E+00 0.00000E+00
 1.80000E+00 0.00000E+00
 2.00000E+00 0.00000E+00
 2.20000E+00 0.00000E+00
 2.40000E+00 0.00000E+00
 2.60000E+00 0.00000E+00
 2.80000E+00 0.00000E+00
 3.00000E+00 0.00000E+00
 3.20000E+00 0.00000E+00
 3.40000E+00 0.00000E+00
 3.60000E+00 0.00000E+00
 3.80000E+00 0.00000E+00
 4.00000E+00 0.00000E+00
 4.20000E+00 0.00000E+00
 4.40000E+00 0.00000E+00
 4.60000E+00 0.00000E+00
 4.80000E+00 2.23224E+00
 5.00000E+00 4.84852E+00
 5.50000E+00 7.39669E+00
 6.00000E+00 7.09479E+00
 6.50000E+00 6.66278E+00
 7.00000E+00 6.32409E+00
 7.50000E+00 6.01162E+00
 8.00000E+00 5.66809E+00
 8.50000E+00 5.09358E+00
 9.00000E+00 4.25223E+00
 9.50000E+00 3.36302E+00
 1.00000E+01 2.55727E+00
 1.10000E+01 1.43524E+00
 1.20000E+01 8.97245E-01
 1.30000E+01 6.61466E-01
 1.40000E+01 5.56653E-01
 1.50000E+01 5.02513E-01
 1.60000E+01 4.67274E-01
 1.70000E+01 4.45721E-01
 1.80000E+01 4.23655E-01
 1.90000E+01 4.09273E-01
 2.00000E+01 3.94111E-01
 2.10000E+01 3.79213E-01
 2.20000E+01 3.67989E-01
 2.30000E+01 3.52563E-01
 2.40000E+01 3.36299E-01
 2.50000E+01 3.25506E-01
 2.60000E+01 3.09304E-01
 2.70000E+01 3.01014E-01
 2.80000E+01 2.87300E-01
 2.90000E+01 2.79824E-01
 3.00000E+01 2.66558E-01
