# n + 208Pb: Gamma-ray intensity - 208Pb: Level 22 --> Level 12 - gamma energy    0.257938
# E-initial  =   4.383285 E-final=   4.125347
# E-threshold= 4.40454E+00
# # energies =    67
#    E           xs
 1.00000E-11 0.00000E+00
 2.53000E-08 0.00000E+00
 2.00000E-07 0.00000E+00
 1.00000E-06 0.00000E+00
 1.00000E-03 0.00000E+00
 2.00000E-03 0.00000E+00
 5.00000E-03 0.00000E+00
 1.00000E-02 0.00000E+00
 2.00000E-02 0.00000E+00
 5.00000E-02 0.00000E+00
 1.00000E-01 0.00000E+00
 2.00000E-01 0.00000E+00
 3.00000E-01 0.00000E+00
 4.00000E-01 0.00000E+00
 5.00000E-01 0.00000E+00
 7.50000E-01 0.00000E+00
 1.00000E+00 0.00000E+00
 1.20000E+00 0.00000E+00
 1.40000E+00 0.00000E+00
 1.60000E+00 0.00000E+00
 1.80000E+00 0.00000E+00
 2.00000E+00 0.00000E+00
 2.20000E+00 0.00000E+00
 2.40000E+00 0.00000E+00
 2.60000E+00 0.00000E+00
 2.80000E+00 0.00000E+00
 3.00000E+00 0.00000E+00
 3.20000E+00 0.00000E+00
 3.40000E+00 0.00000E+00
 3.60000E+00 0.00000E+00
 3.80000E+00 0.00000E+00
 4.00000E+00 0.00000E+00
 4.20000E+00 0.00000E+00
 4.40000E+00 0.00000E+00
 4.60000E+00 8.72464E-02
 4.80000E+00 1.35386E-01
 5.00000E+00 1.66630E-01
 5.50000E+00 1.95716E-01
 6.00000E+00 2.09419E-01
 6.50000E+00 2.25599E-01
 7.00000E+00 2.42666E-01
 7.50000E+00 2.61911E-01
 8.00000E+00 2.79465E-01
 8.50000E+00 2.83944E-01
 9.00000E+00 2.63624E-01
 9.50000E+00 2.24696E-01
 1.00000E+01 1.78599E-01
 1.10000E+01 1.01362E-01
 1.20000E+01 5.69957E-02
 1.30000E+01 3.70149E-02
 1.40000E+01 2.84607E-02
 1.50000E+01 2.44299E-02
 1.60000E+01 2.23538E-02
 1.70000E+01 2.12346E-02
 1.80000E+01 1.98291E-02
 1.90000E+01 1.87001E-02
 2.00000E+01 1.76491E-02
 2.10000E+01 1.66509E-02
 2.20000E+01 1.60300E-02
 2.30000E+01 1.51483E-02
 2.40000E+01 1.41056E-02
 2.50000E+01 1.33587E-02
 2.60000E+01 1.26442E-02
 2.70000E+01 1.17100E-02
 2.80000E+01 1.11838E-02
 2.90000E+01 1.08276E-02
 3.00000E+01 9.82670E-03
