# n + 208Pb: Gamma-ray intensity - 207Pb: Level  2 --> Level  1 - gamma energy    0.328000
# E-initial  =   0.897698 E-final=   0.569698
# E-threshold= 8.30566E+00
# # energies =    67
#    E           xs
 1.00000E-11 0.00000E+00
 2.53000E-08 0.00000E+00
 2.00000E-07 0.00000E+00
 1.00000E-06 0.00000E+00
 1.00000E-03 0.00000E+00
 2.00000E-03 0.00000E+00
 5.00000E-03 0.00000E+00
 1.00000E-02 0.00000E+00
 2.00000E-02 0.00000E+00
 5.00000E-02 0.00000E+00
 1.00000E-01 0.00000E+00
 2.00000E-01 0.00000E+00
 3.00000E-01 0.00000E+00
 4.00000E-01 0.00000E+00
 5.00000E-01 0.00000E+00
 7.50000E-01 0.00000E+00
 1.00000E+00 0.00000E+00
 1.20000E+00 0.00000E+00
 1.40000E+00 0.00000E+00
 1.60000E+00 0.00000E+00
 1.80000E+00 0.00000E+00
 2.00000E+00 0.00000E+00
 2.20000E+00 0.00000E+00
 2.40000E+00 0.00000E+00
 2.60000E+00 0.00000E+00
 2.80000E+00 0.00000E+00
 3.00000E+00 0.00000E+00
 3.20000E+00 0.00000E+00
 3.40000E+00 0.00000E+00
 3.60000E+00 0.00000E+00
 3.80000E+00 0.00000E+00
 4.00000E+00 0.00000E+00
 4.20000E+00 0.00000E+00
 4.40000E+00 0.00000E+00
 4.60000E+00 0.00000E+00
 4.80000E+00 0.00000E+00
 5.00000E+00 0.00000E+00
 5.50000E+00 0.00000E+00
 6.00000E+00 0.00000E+00
 6.50000E+00 0.00000E+00
 7.00000E+00 0.00000E+00
 7.50000E+00 0.00000E+00
 8.00000E+00 0.00000E+00
 8.50000E+00 6.26637E-03
 9.00000E+00 1.28640E-01
 9.50000E+00 3.77341E-01
 1.00000E+01 6.52559E-01
 1.10000E+01 1.10397E+00
 1.20000E+01 1.27630E+00
 1.30000E+01 1.23122E+00
 1.40000E+01 1.11486E+00
 1.50000E+01 1.00881E+00
 1.60000E+01 8.91125E-01
 1.70000E+01 7.57772E-01
 1.80000E+01 6.26507E-01
 1.90000E+01 5.07024E-01
 2.00000E+01 4.08244E-01
 2.10000E+01 3.29365E-01
 2.20000E+01 2.76600E-01
 2.30000E+01 2.41908E-01
 2.40000E+01 2.17803E-01
 2.50000E+01 1.99853E-01
 2.60000E+01 1.89568E-01
 2.70000E+01 1.79148E-01
 2.80000E+01 1.72478E-01
 2.90000E+01 1.66446E-01
 3.00000E+01 1.60091E-01
