# n + 208Pb: Gamma-ray intensity - 208Pb: Level 12 --> Level  7 - gamma energy    0.164185
# E-initial  =   4.125347 E-final=   3.961162
# E-threshold= 4.14535E+00
# # energies =    67
#    E           xs
 1.00000E-11 0.00000E+00
 2.53000E-08 0.00000E+00
 2.00000E-07 0.00000E+00
 1.00000E-06 0.00000E+00
 1.00000E-03 0.00000E+00
 2.00000E-03 0.00000E+00
 5.00000E-03 0.00000E+00
 1.00000E-02 0.00000E+00
 2.00000E-02 0.00000E+00
 5.00000E-02 0.00000E+00
 1.00000E-01 0.00000E+00
 2.00000E-01 0.00000E+00
 3.00000E-01 0.00000E+00
 4.00000E-01 0.00000E+00
 5.00000E-01 0.00000E+00
 7.50000E-01 0.00000E+00
 1.00000E+00 0.00000E+00
 1.20000E+00 0.00000E+00
 1.40000E+00 0.00000E+00
 1.60000E+00 0.00000E+00
 1.80000E+00 0.00000E+00
 2.00000E+00 0.00000E+00
 2.20000E+00 0.00000E+00
 2.40000E+00 0.00000E+00
 2.60000E+00 0.00000E+00
 2.80000E+00 0.00000E+00
 3.00000E+00 0.00000E+00
 3.20000E+00 0.00000E+00
 3.40000E+00 0.00000E+00
 3.60000E+00 0.00000E+00
 3.80000E+00 0.00000E+00
 4.00000E+00 0.00000E+00
 4.20000E+00 7.22357E-01
 4.40000E+00 1.62849E+00
 4.60000E+00 2.14047E+00
 4.80000E+00 2.41570E+00
 5.00000E+00 2.51759E+00
 5.50000E+00 2.49797E+00
 6.00000E+00 2.43203E+00
 6.50000E+00 2.38059E+00
 7.00000E+00 2.36285E+00
 7.50000E+00 2.38674E+00
 8.00000E+00 2.37436E+00
 8.50000E+00 2.22507E+00
 9.00000E+00 1.93484E+00
 9.50000E+00 1.60011E+00
 1.00000E+01 1.28412E+00
 1.10000E+01 8.27082E-01
 1.20000E+01 5.99214E-01
 1.30000E+01 4.95822E-01
 1.40000E+01 4.44232E-01
 1.50000E+01 4.11566E-01
 1.60000E+01 3.86749E-01
 1.70000E+01 3.68461E-01
 1.80000E+01 3.51250E-01
 1.90000E+01 3.37114E-01
 2.00000E+01 3.23881E-01
 2.10000E+01 3.10800E-01
 2.20000E+01 2.98626E-01
 2.30000E+01 2.86077E-01
 2.40000E+01 2.73787E-01
 2.50000E+01 2.62782E-01
 2.60000E+01 2.52463E-01
 2.70000E+01 2.43850E-01
 2.80000E+01 2.35469E-01
 2.90000E+01 2.28201E-01
 3.00000E+01 2.20047E-01
