# n + 208Pb: Gamma-ray intensity - 208Pb: Level 28 --> Level  2 - gamma energy    1.500612
# E-initial  =   4.698323 E-final=   3.197711
# E-threshold= 4.72111E+00
# # energies =    67
#    E           xs
 1.00000E-11 0.00000E+00
 2.53000E-08 0.00000E+00
 2.00000E-07 0.00000E+00
 1.00000E-06 0.00000E+00
 1.00000E-03 0.00000E+00
 2.00000E-03 0.00000E+00
 5.00000E-03 0.00000E+00
 1.00000E-02 0.00000E+00
 2.00000E-02 0.00000E+00
 5.00000E-02 0.00000E+00
 1.00000E-01 0.00000E+00
 2.00000E-01 0.00000E+00
 3.00000E-01 0.00000E+00
 4.00000E-01 0.00000E+00
 5.00000E-01 0.00000E+00
 7.50000E-01 0.00000E+00
 1.00000E+00 0.00000E+00
 1.20000E+00 0.00000E+00
 1.40000E+00 0.00000E+00
 1.60000E+00 0.00000E+00
 1.80000E+00 0.00000E+00
 2.00000E+00 0.00000E+00
 2.20000E+00 0.00000E+00
 2.40000E+00 0.00000E+00
 2.60000E+00 0.00000E+00
 2.80000E+00 0.00000E+00
 3.00000E+00 0.00000E+00
 3.20000E+00 0.00000E+00
 3.40000E+00 0.00000E+00
 3.60000E+00 0.00000E+00
 3.80000E+00 0.00000E+00
 4.00000E+00 0.00000E+00
 4.20000E+00 0.00000E+00
 4.40000E+00 0.00000E+00
 4.60000E+00 0.00000E+00
 4.80000E+00 2.33579E+00
 5.00000E+00 4.92939E+00
 5.50000E+00 6.83756E+00
 6.00000E+00 6.12792E+00
 6.50000E+00 5.44223E+00
 7.00000E+00 4.86520E+00
 7.50000E+00 4.34391E+00
 8.00000E+00 3.67024E+00
 8.50000E+00 2.92288E+00
 9.00000E+00 2.26573E+00
 9.50000E+00 1.68206E+00
 1.00000E+01 1.24392E+00
 1.10000E+01 7.27054E-01
 1.20000E+01 4.92283E-01
 1.30000E+01 3.96654E-01
 1.40000E+01 3.48514E-01
 1.50000E+01 3.22441E-01
 1.60000E+01 3.01745E-01
 1.70000E+01 2.87483E-01
 1.80000E+01 2.78261E-01
 1.90000E+01 2.69336E-01
 2.00000E+01 2.62894E-01
 2.10000E+01 2.52735E-01
 2.20000E+01 2.47425E-01
 2.30000E+01 2.36433E-01
 2.40000E+01 2.27582E-01
 2.50000E+01 2.22648E-01
 2.60000E+01 2.14257E-01
 2.70000E+01 2.07754E-01
 2.80000E+01 2.00319E-01
 2.90000E+01 1.97260E-01
 3.00000E+01 1.90272E-01
