# n + 208Pb: Gamma-ray intensity - 208Pb: Level 29 --> Level  4 - gamma energy    1.000276
# E-initial  =   4.708727 E-final=   3.708451
# E-threshold= 4.73156E+00
# # energies =    67
#    E           xs
 1.00000E-11 0.00000E+00
 2.53000E-08 0.00000E+00
 2.00000E-07 0.00000E+00
 1.00000E-06 0.00000E+00
 1.00000E-03 0.00000E+00
 2.00000E-03 0.00000E+00
 5.00000E-03 0.00000E+00
 1.00000E-02 0.00000E+00
 2.00000E-02 0.00000E+00
 5.00000E-02 0.00000E+00
 1.00000E-01 0.00000E+00
 2.00000E-01 0.00000E+00
 3.00000E-01 0.00000E+00
 4.00000E-01 0.00000E+00
 5.00000E-01 0.00000E+00
 7.50000E-01 0.00000E+00
 1.00000E+00 0.00000E+00
 1.20000E+00 0.00000E+00
 1.40000E+00 0.00000E+00
 1.60000E+00 0.00000E+00
 1.80000E+00 0.00000E+00
 2.00000E+00 0.00000E+00
 2.20000E+00 0.00000E+00
 2.40000E+00 0.00000E+00
 2.60000E+00 0.00000E+00
 2.80000E+00 0.00000E+00
 3.00000E+00 0.00000E+00
 3.20000E+00 0.00000E+00
 3.40000E+00 0.00000E+00
 3.60000E+00 0.00000E+00
 3.80000E+00 0.00000E+00
 4.00000E+00 0.00000E+00
 4.20000E+00 0.00000E+00
 4.40000E+00 0.00000E+00
 4.60000E+00 0.00000E+00
 4.80000E+00 3.71977E+00
 5.00000E+00 8.07948E+00
 5.50000E+00 1.23257E+01
 6.00000E+00 1.18226E+01
 6.50000E+00 1.11027E+01
 7.00000E+00 1.05383E+01
 7.50000E+00 1.00176E+01
 8.00000E+00 9.44520E+00
 8.50000E+00 8.48783E+00
 9.00000E+00 7.08584E+00
 9.50000E+00 5.60407E+00
 1.00000E+01 4.26138E+00
 1.10000E+01 2.39165E+00
 1.20000E+01 1.49515E+00
 1.30000E+01 1.10225E+00
 1.40000E+01 9.27596E-01
 1.50000E+01 8.37378E-01
 1.60000E+01 7.78656E-01
 1.70000E+01 7.42741E-01
 1.80000E+01 7.05971E-01
 1.90000E+01 6.82005E-01
 2.00000E+01 6.56738E-01
 2.10000E+01 6.31913E-01
 2.20000E+01 6.13209E-01
 2.30000E+01 5.87503E-01
 2.40000E+01 5.60403E-01
 2.50000E+01 5.42417E-01
 2.60000E+01 5.15417E-01
 2.70000E+01 5.01603E-01
 2.80000E+01 4.78751E-01
 2.90000E+01 4.66293E-01
 3.00000E+01 4.44187E-01
