# n + 208Pb: Gamma-ray intensity - 208Pb: Level 19 --> Level  2 - gamma energy    1.098849
# E-initial  =   4.296560 E-final=   3.197711
# E-threshold= 4.31740E+00
# # energies =    67
#    E           xs
 1.00000E-11 0.00000E+00
 2.53000E-08 0.00000E+00
 2.00000E-07 0.00000E+00
 1.00000E-06 0.00000E+00
 1.00000E-03 0.00000E+00
 2.00000E-03 0.00000E+00
 5.00000E-03 0.00000E+00
 1.00000E-02 0.00000E+00
 2.00000E-02 0.00000E+00
 5.00000E-02 0.00000E+00
 1.00000E-01 0.00000E+00
 2.00000E-01 0.00000E+00
 3.00000E-01 0.00000E+00
 4.00000E-01 0.00000E+00
 5.00000E-01 0.00000E+00
 7.50000E-01 0.00000E+00
 1.00000E+00 0.00000E+00
 1.20000E+00 0.00000E+00
 1.40000E+00 0.00000E+00
 1.60000E+00 0.00000E+00
 1.80000E+00 0.00000E+00
 2.00000E+00 0.00000E+00
 2.20000E+00 0.00000E+00
 2.40000E+00 0.00000E+00
 2.60000E+00 0.00000E+00
 2.80000E+00 0.00000E+00
 3.00000E+00 0.00000E+00
 3.20000E+00 0.00000E+00
 3.40000E+00 0.00000E+00
 3.60000E+00 0.00000E+00
 3.80000E+00 0.00000E+00
 4.00000E+00 0.00000E+00
 4.20000E+00 0.00000E+00
 4.40000E+00 1.08809E+00
 4.60000E+00 2.07318E+00
 4.80000E+00 2.74815E+00
 5.00000E+00 3.09843E+00
 5.50000E+00 3.17167E+00
 6.00000E+00 2.99715E+00
 6.50000E+00 2.85589E+00
 7.00000E+00 2.75256E+00
 7.50000E+00 2.70814E+00
 8.00000E+00 2.63995E+00
 8.50000E+00 2.42086E+00
 9.00000E+00 2.04019E+00
 9.50000E+00 1.61648E+00
 1.00000E+01 1.22490E+00
 1.10000E+01 6.71768E-01
 1.20000E+01 4.04051E-01
 1.30000E+01 2.87512E-01
 1.40000E+01 2.36070E-01
 1.50000E+01 2.09688E-01
 1.60000E+01 1.92770E-01
 1.70000E+01 1.82252E-01
 1.80000E+01 1.71176E-01
 1.90000E+01 1.62962E-01
 2.00000E+01 1.55203E-01
 2.10000E+01 1.47761E-01
 2.20000E+01 1.41730E-01
 2.30000E+01 1.34713E-01
 2.40000E+01 1.27400E-01
 2.50000E+01 1.21385E-01
 2.60000E+01 1.14755E-01
 2.70000E+01 1.10297E-01
 2.80000E+01 1.05144E-01
 2.90000E+01 1.01637E-01
 3.00000E+01 9.65547E-02
