# n + 208Pb: Gamma-ray intensity - 208Pb: Level 27 --> Level 15 - gamma energy    0.473989
# E-initial  =   4.680266 E-final=   4.206277
# E-threshold= 4.70296E+00
# # energies =    67
#    E           xs
 1.00000E-11 0.00000E+00
 2.53000E-08 0.00000E+00
 2.00000E-07 0.00000E+00
 1.00000E-06 0.00000E+00
 1.00000E-03 0.00000E+00
 2.00000E-03 0.00000E+00
 5.00000E-03 0.00000E+00
 1.00000E-02 0.00000E+00
 2.00000E-02 0.00000E+00
 5.00000E-02 0.00000E+00
 1.00000E-01 0.00000E+00
 2.00000E-01 0.00000E+00
 3.00000E-01 0.00000E+00
 4.00000E-01 0.00000E+00
 5.00000E-01 0.00000E+00
 7.50000E-01 0.00000E+00
 1.00000E+00 0.00000E+00
 1.20000E+00 0.00000E+00
 1.40000E+00 0.00000E+00
 1.60000E+00 0.00000E+00
 1.80000E+00 0.00000E+00
 2.00000E+00 0.00000E+00
 2.20000E+00 0.00000E+00
 2.40000E+00 0.00000E+00
 2.60000E+00 0.00000E+00
 2.80000E+00 0.00000E+00
 3.00000E+00 0.00000E+00
 3.20000E+00 0.00000E+00
 3.40000E+00 0.00000E+00
 3.60000E+00 0.00000E+00
 3.80000E+00 0.00000E+00
 4.00000E+00 0.00000E+00
 4.20000E+00 0.00000E+00
 4.40000E+00 0.00000E+00
 4.60000E+00 0.00000E+00
 4.80000E+00 2.43999E-01
 5.00000E+00 1.02448E+00
 5.50000E+00 2.60878E+00
 6.00000E+00 3.53864E+00
 6.50000E+00 4.59783E+00
 7.00000E+00 5.73281E+00
 7.50000E+00 6.86038E+00
 8.00000E+00 7.94157E+00
 8.50000E+00 8.77923E+00
 9.00000E+00 8.96024E+00
 9.50000E+00 8.31859E+00
 1.00000E+01 7.10796E+00
 1.10000E+01 4.53738E+00
 1.20000E+01 2.72506E+00
 1.30000E+01 1.84527E+00
 1.40000E+01 1.44999E+00
 1.50000E+01 1.27196E+00
 1.60000E+01 1.18303E+00
 1.70000E+01 1.14152E+00
 1.80000E+01 1.08458E+00
 1.90000E+01 1.03640E+00
 2.00000E+01 9.88449E-01
 2.10000E+01 9.42964E-01
 2.20000E+01 9.24424E-01
 2.30000E+01 8.76564E-01
 2.40000E+01 8.34274E-01
 2.50000E+01 7.92374E-01
 2.60000E+01 7.60437E-01
 2.70000E+01 7.07146E-01
 2.80000E+01 6.79603E-01
 2.90000E+01 6.61617E-01
 3.00000E+01 6.03333E-01
