# n + 208Pb: Gamma-ray intensity - 208Pb: Level 19 --> Level 12 - gamma energy    0.171213
# E-initial  =   4.296560 E-final=   4.125347
# E-threshold= 4.31740E+00
# # energies =    67
#    E           xs
 1.00000E-11 0.00000E+00
 2.53000E-08 0.00000E+00
 2.00000E-07 0.00000E+00
 1.00000E-06 0.00000E+00
 1.00000E-03 0.00000E+00
 2.00000E-03 0.00000E+00
 5.00000E-03 0.00000E+00
 1.00000E-02 0.00000E+00
 2.00000E-02 0.00000E+00
 5.00000E-02 0.00000E+00
 1.00000E-01 0.00000E+00
 2.00000E-01 0.00000E+00
 3.00000E-01 0.00000E+00
 4.00000E-01 0.00000E+00
 5.00000E-01 0.00000E+00
 7.50000E-01 0.00000E+00
 1.00000E+00 0.00000E+00
 1.20000E+00 0.00000E+00
 1.40000E+00 0.00000E+00
 1.60000E+00 0.00000E+00
 1.80000E+00 0.00000E+00
 2.00000E+00 0.00000E+00
 2.20000E+00 0.00000E+00
 2.40000E+00 0.00000E+00
 2.60000E+00 0.00000E+00
 2.80000E+00 0.00000E+00
 3.00000E+00 0.00000E+00
 3.20000E+00 0.00000E+00
 3.40000E+00 0.00000E+00
 3.60000E+00 0.00000E+00
 3.80000E+00 0.00000E+00
 4.00000E+00 0.00000E+00
 4.20000E+00 0.00000E+00
 4.40000E+00 5.33960E-01
 4.60000E+00 1.01738E+00
 4.80000E+00 1.34861E+00
 5.00000E+00 1.52050E+00
 5.50000E+00 1.55644E+00
 6.00000E+00 1.47080E+00
 6.50000E+00 1.40148E+00
 7.00000E+00 1.35077E+00
 7.50000E+00 1.32897E+00
 8.00000E+00 1.29551E+00
 8.50000E+00 1.18800E+00
 9.00000E+00 1.00119E+00
 9.50000E+00 7.93258E-01
 1.00000E+01 6.01100E-01
 1.10000E+01 3.29659E-01
 1.20000E+01 1.98281E-01
 1.30000E+01 1.41092E-01
 1.40000E+01 1.15847E-01
 1.50000E+01 1.02901E-01
 1.60000E+01 9.45988E-02
 1.70000E+01 8.94372E-02
 1.80000E+01 8.40017E-02
 1.90000E+01 7.99709E-02
 2.00000E+01 7.61634E-02
 2.10000E+01 7.25111E-02
 2.20000E+01 6.95517E-02
 2.30000E+01 6.61081E-02
 2.40000E+01 6.25193E-02
 2.50000E+01 5.95677E-02
 2.60000E+01 5.63140E-02
 2.70000E+01 5.41266E-02
 2.80000E+01 5.15978E-02
 2.90000E+01 4.98766E-02
 3.00000E+01 4.73826E-02
