# n + 208Pb: Gamma-ray intensity - 208Pb: Level 20 --> Level  1 - gamma energy    1.709424
# E-initial  =   4.323946 E-final=   2.614522
# E-threshold= 4.34492E+00
# # energies =    67
#    E           xs
 1.00000E-11 0.00000E+00
 2.53000E-08 0.00000E+00
 2.00000E-07 0.00000E+00
 1.00000E-06 0.00000E+00
 1.00000E-03 0.00000E+00
 2.00000E-03 0.00000E+00
 5.00000E-03 0.00000E+00
 1.00000E-02 0.00000E+00
 2.00000E-02 0.00000E+00
 5.00000E-02 0.00000E+00
 1.00000E-01 0.00000E+00
 2.00000E-01 0.00000E+00
 3.00000E-01 0.00000E+00
 4.00000E-01 0.00000E+00
 5.00000E-01 0.00000E+00
 7.50000E-01 0.00000E+00
 1.00000E+00 0.00000E+00
 1.20000E+00 0.00000E+00
 1.40000E+00 0.00000E+00
 1.60000E+00 0.00000E+00
 1.80000E+00 0.00000E+00
 2.00000E+00 0.00000E+00
 2.20000E+00 0.00000E+00
 2.40000E+00 0.00000E+00
 2.60000E+00 0.00000E+00
 2.80000E+00 0.00000E+00
 3.00000E+00 0.00000E+00
 3.20000E+00 0.00000E+00
 3.40000E+00 0.00000E+00
 3.60000E+00 0.00000E+00
 3.80000E+00 0.00000E+00
 4.00000E+00 0.00000E+00
 4.20000E+00 0.00000E+00
 4.40000E+00 5.12518E-02
 4.60000E+00 1.99241E-01
 4.80000E+00 2.83669E-01
 5.00000E+00 3.19592E-01
 5.50000E+00 3.33807E-01
 6.00000E+00 3.30369E-01
 6.50000E+00 3.11442E-01
 7.00000E+00 2.87070E-01
 7.50000E+00 2.74317E-01
 8.00000E+00 2.58286E-01
 8.50000E+00 2.26852E-01
 9.00000E+00 1.91140E-01
 9.50000E+00 1.54929E-01
 1.00000E+01 1.23769E-01
 1.10000E+01 8.27108E-02
 1.20000E+01 6.39483E-02
 1.30000E+01 5.61642E-02
 1.40000E+01 5.19008E-02
 1.50000E+01 4.90457E-02
 1.60000E+01 4.65372E-02
 1.70000E+01 4.44250E-02
 1.80000E+01 4.25189E-02
 1.90000E+01 4.05556E-02
 2.00000E+01 3.89430E-02
 2.10000E+01 3.71713E-02
 2.20000E+01 3.58538E-02
 2.30000E+01 3.44707E-02
 2.40000E+01 3.31406E-02
 2.50000E+01 3.22226E-02
 2.60000E+01 3.12129E-02
 2.70000E+01 3.00417E-02
 2.80000E+01 2.91644E-02
 2.90000E+01 2.85274E-02
 3.00000E+01 2.77752E-02
