# n + 208Pb: Gamma-ray intensity - 207Pb: Level 10 --> Level  2 - gamma energy    2.011302
# E-initial  =   2.909000 E-final=   0.897698
# E-threshold= 1.03267E+01
# # energies =    67
#    E           xs
 1.00000E-11 0.00000E+00
 2.53000E-08 0.00000E+00
 2.00000E-07 0.00000E+00
 1.00000E-06 0.00000E+00
 1.00000E-03 0.00000E+00
 2.00000E-03 0.00000E+00
 5.00000E-03 0.00000E+00
 1.00000E-02 0.00000E+00
 2.00000E-02 0.00000E+00
 5.00000E-02 0.00000E+00
 1.00000E-01 0.00000E+00
 2.00000E-01 0.00000E+00
 3.00000E-01 0.00000E+00
 4.00000E-01 0.00000E+00
 5.00000E-01 0.00000E+00
 7.50000E-01 0.00000E+00
 1.00000E+00 0.00000E+00
 1.20000E+00 0.00000E+00
 1.40000E+00 0.00000E+00
 1.60000E+00 0.00000E+00
 1.80000E+00 0.00000E+00
 2.00000E+00 0.00000E+00
 2.20000E+00 0.00000E+00
 2.40000E+00 0.00000E+00
 2.60000E+00 0.00000E+00
 2.80000E+00 0.00000E+00
 3.00000E+00 0.00000E+00
 3.20000E+00 0.00000E+00
 3.40000E+00 0.00000E+00
 3.60000E+00 0.00000E+00
 3.80000E+00 0.00000E+00
 4.00000E+00 0.00000E+00
 4.20000E+00 0.00000E+00
 4.40000E+00 0.00000E+00
 4.60000E+00 0.00000E+00
 4.80000E+00 0.00000E+00
 5.00000E+00 0.00000E+00
 5.50000E+00 0.00000E+00
 6.00000E+00 0.00000E+00
 6.50000E+00 0.00000E+00
 7.00000E+00 0.00000E+00
 7.50000E+00 0.00000E+00
 8.00000E+00 0.00000E+00
 8.50000E+00 0.00000E+00
 9.00000E+00 0.00000E+00
 9.50000E+00 0.00000E+00
 1.00000E+01 0.00000E+00
 1.10000E+01 1.32280E+00
 1.20000E+01 7.03009E+00
 1.30000E+01 1.22195E+01
 1.40000E+01 1.41546E+01
 1.50000E+01 1.40821E+01
 1.60000E+01 1.35516E+01
 1.70000E+01 1.31844E+01
 1.80000E+01 1.26468E+01
 1.90000E+01 1.14868E+01
 2.00000E+01 9.75096E+00
 2.10000E+01 7.96513E+00
 2.20000E+01 6.61564E+00
 2.30000E+01 5.77275E+00
 2.40000E+01 5.16765E+00
 2.50000E+01 4.78053E+00
 2.60000E+01 4.60189E+00
 2.70000E+01 4.39555E+00
 2.80000E+01 4.34051E+00
 2.90000E+01 4.24997E+00
 3.00000E+01 4.14030E+00
