# n + 208Pb: Gamma-ray intensity - 208Pb: Level 20 --> Level  0 - gamma energy    4.323946
# E-initial  =   4.323946 E-final=   0.000000
# E-threshold= 4.34492E+00
# # energies =    67
#    E           xs
 1.00000E-11 0.00000E+00
 2.53000E-08 0.00000E+00
 2.00000E-07 0.00000E+00
 1.00000E-06 0.00000E+00
 1.00000E-03 0.00000E+00
 2.00000E-03 0.00000E+00
 5.00000E-03 0.00000E+00
 1.00000E-02 0.00000E+00
 2.00000E-02 0.00000E+00
 5.00000E-02 0.00000E+00
 1.00000E-01 0.00000E+00
 2.00000E-01 0.00000E+00
 3.00000E-01 0.00000E+00
 4.00000E-01 0.00000E+00
 5.00000E-01 0.00000E+00
 7.50000E-01 0.00000E+00
 1.00000E+00 0.00000E+00
 1.20000E+00 0.00000E+00
 1.40000E+00 0.00000E+00
 1.60000E+00 0.00000E+00
 1.80000E+00 0.00000E+00
 2.00000E+00 0.00000E+00
 2.20000E+00 0.00000E+00
 2.40000E+00 0.00000E+00
 2.60000E+00 0.00000E+00
 2.80000E+00 0.00000E+00
 3.00000E+00 0.00000E+00
 3.20000E+00 0.00000E+00
 3.40000E+00 0.00000E+00
 3.60000E+00 0.00000E+00
 3.80000E+00 0.00000E+00
 4.00000E+00 0.00000E+00
 4.20000E+00 0.00000E+00
 4.40000E+00 3.11606E-02
 4.60000E+00 1.21136E-01
 4.80000E+00 1.72468E-01
 5.00000E+00 1.94309E-01
 5.50000E+00 2.02952E-01
 6.00000E+00 2.00861E-01
 6.50000E+00 1.89354E-01
 7.00000E+00 1.74536E-01
 7.50000E+00 1.66782E-01
 8.00000E+00 1.57036E-01
 8.50000E+00 1.37924E-01
 9.00000E+00 1.16211E-01
 9.50000E+00 9.41955E-02
 1.00000E+01 7.52503E-02
 1.10000E+01 5.02874E-02
 1.20000E+01 3.88799E-02
 1.30000E+01 3.41473E-02
 1.40000E+01 3.15552E-02
 1.50000E+01 2.98193E-02
 1.60000E+01 2.82942E-02
 1.70000E+01 2.70100E-02
 1.80000E+01 2.58511E-02
 1.90000E+01 2.46574E-02
 2.00000E+01 2.36770E-02
 2.10000E+01 2.25998E-02
 2.20000E+01 2.17988E-02
 2.30000E+01 2.09579E-02
 2.40000E+01 2.01492E-02
 2.50000E+01 1.95911E-02
 2.60000E+01 1.89771E-02
 2.70000E+01 1.82651E-02
 2.80000E+01 1.77317E-02
 2.90000E+01 1.73444E-02
 3.00000E+01 1.68870E-02
