# n + 208Pb: Gamma-ray intensity - 208Pb: Level 25 --> Level  4 - gamma energy    0.772295
# E-initial  =   4.480746 E-final=   3.708451
# E-threshold= 4.50248E+00
# # energies =    67
#    E           xs
 1.00000E-11 0.00000E+00
 2.53000E-08 0.00000E+00
 2.00000E-07 0.00000E+00
 1.00000E-06 0.00000E+00
 1.00000E-03 0.00000E+00
 2.00000E-03 0.00000E+00
 5.00000E-03 0.00000E+00
 1.00000E-02 0.00000E+00
 2.00000E-02 0.00000E+00
 5.00000E-02 0.00000E+00
 1.00000E-01 0.00000E+00
 2.00000E-01 0.00000E+00
 3.00000E-01 0.00000E+00
 4.00000E-01 0.00000E+00
 5.00000E-01 0.00000E+00
 7.50000E-01 0.00000E+00
 1.00000E+00 0.00000E+00
 1.20000E+00 0.00000E+00
 1.40000E+00 0.00000E+00
 1.60000E+00 0.00000E+00
 1.80000E+00 0.00000E+00
 2.00000E+00 0.00000E+00
 2.20000E+00 0.00000E+00
 2.40000E+00 0.00000E+00
 2.60000E+00 0.00000E+00
 2.80000E+00 0.00000E+00
 3.00000E+00 0.00000E+00
 3.20000E+00 0.00000E+00
 3.40000E+00 0.00000E+00
 3.60000E+00 0.00000E+00
 3.80000E+00 0.00000E+00
 4.00000E+00 0.00000E+00
 4.20000E+00 0.00000E+00
 4.40000E+00 0.00000E+00
 4.60000E+00 6.43040E-01
 4.80000E+00 1.28241E+00
 5.00000E+00 1.74856E+00
 5.50000E+00 2.19350E+00
 6.00000E+00 2.32768E+00
 6.50000E+00 2.49015E+00
 7.00000E+00 2.65665E+00
 7.50000E+00 2.83799E+00
 8.00000E+00 3.00504E+00
 8.50000E+00 3.03818E+00
 9.00000E+00 2.81042E+00
 9.50000E+00 2.38749E+00
 1.00000E+01 1.89178E+00
 1.10000E+01 1.06792E+00
 1.20000E+01 5.98039E-01
 1.30000E+01 3.86664E-01
 1.40000E+01 2.96433E-01
 1.50000E+01 2.54170E-01
 1.60000E+01 2.32628E-01
 1.70000E+01 2.21303E-01
 1.80000E+01 2.06851E-01
 1.90000E+01 1.95557E-01
 2.00000E+01 1.84852E-01
 2.10000E+01 1.74708E-01
 2.20000E+01 1.68561E-01
 2.30000E+01 1.59612E-01
 2.40000E+01 1.48674E-01
 2.50000E+01 1.41481E-01
 2.60000E+01 1.33785E-01
 2.70000E+01 1.24385E-01
 2.80000E+01 1.18705E-01
 2.90000E+01 1.15052E-01
 3.00000E+01 1.04392E-01
