# n + 208Pb: Gamma-ray intensity - 207Pb: Level  9 --> Level  4 - gamma energy    0.562079
# E-initial  =   2.902000 E-final=   2.339921
# E-threshold= 1.03197E+01
# # energies =    67
#    E           xs
 1.00000E-11 0.00000E+00
 2.53000E-08 0.00000E+00
 2.00000E-07 0.00000E+00
 1.00000E-06 0.00000E+00
 1.00000E-03 0.00000E+00
 2.00000E-03 0.00000E+00
 5.00000E-03 0.00000E+00
 1.00000E-02 0.00000E+00
 2.00000E-02 0.00000E+00
 5.00000E-02 0.00000E+00
 1.00000E-01 0.00000E+00
 2.00000E-01 0.00000E+00
 3.00000E-01 0.00000E+00
 4.00000E-01 0.00000E+00
 5.00000E-01 0.00000E+00
 7.50000E-01 0.00000E+00
 1.00000E+00 0.00000E+00
 1.20000E+00 0.00000E+00
 1.40000E+00 0.00000E+00
 1.60000E+00 0.00000E+00
 1.80000E+00 0.00000E+00
 2.00000E+00 0.00000E+00
 2.20000E+00 0.00000E+00
 2.40000E+00 0.00000E+00
 2.60000E+00 0.00000E+00
 2.80000E+00 0.00000E+00
 3.00000E+00 0.00000E+00
 3.20000E+00 0.00000E+00
 3.40000E+00 0.00000E+00
 3.60000E+00 0.00000E+00
 3.80000E+00 0.00000E+00
 4.00000E+00 0.00000E+00
 4.20000E+00 0.00000E+00
 4.40000E+00 0.00000E+00
 4.60000E+00 0.00000E+00
 4.80000E+00 0.00000E+00
 5.00000E+00 0.00000E+00
 5.50000E+00 0.00000E+00
 6.00000E+00 0.00000E+00
 6.50000E+00 0.00000E+00
 7.00000E+00 0.00000E+00
 7.50000E+00 0.00000E+00
 8.00000E+00 0.00000E+00
 8.50000E+00 0.00000E+00
 9.00000E+00 0.00000E+00
 9.50000E+00 0.00000E+00
 1.00000E+01 0.00000E+00
 1.10000E+01 5.91283E+00
 1.20000E+01 2.53254E+01
 1.30000E+01 4.17173E+01
 1.40000E+01 5.09004E+01
 1.50000E+01 5.55104E+01
 1.60000E+01 5.70620E+01
 1.70000E+01 5.37703E+01
 1.80000E+01 4.57687E+01
 1.90000E+01 3.59610E+01
 2.00000E+01 2.70510E+01
 2.10000E+01 2.04664E+01
 2.20000E+01 1.62667E+01
 2.30000E+01 1.37510E+01
 2.40000E+01 1.21315E+01
 2.50000E+01 1.10679E+01
 2.60000E+01 1.04191E+01
 2.70000E+01 9.78544E+00
 2.80000E+01 9.42646E+00
 2.90000E+01 9.09046E+00
 3.00000E+01 8.68427E+00
