# n + 208Pb: Gamma-ray intensity - 208Pb: Level 22 --> Level  2 - gamma energy    1.185574
# E-initial  =   4.383285 E-final=   3.197711
# E-threshold= 4.40454E+00
# # energies =    67
#    E           xs
 1.00000E-11 0.00000E+00
 2.53000E-08 0.00000E+00
 2.00000E-07 0.00000E+00
 1.00000E-06 0.00000E+00
 1.00000E-03 0.00000E+00
 2.00000E-03 0.00000E+00
 5.00000E-03 0.00000E+00
 1.00000E-02 0.00000E+00
 2.00000E-02 0.00000E+00
 5.00000E-02 0.00000E+00
 1.00000E-01 0.00000E+00
 2.00000E-01 0.00000E+00
 3.00000E-01 0.00000E+00
 4.00000E-01 0.00000E+00
 5.00000E-01 0.00000E+00
 7.50000E-01 0.00000E+00
 1.00000E+00 0.00000E+00
 1.20000E+00 0.00000E+00
 1.40000E+00 0.00000E+00
 1.60000E+00 0.00000E+00
 1.80000E+00 0.00000E+00
 2.00000E+00 0.00000E+00
 2.20000E+00 0.00000E+00
 2.40000E+00 0.00000E+00
 2.60000E+00 0.00000E+00
 2.80000E+00 0.00000E+00
 3.00000E+00 0.00000E+00
 3.20000E+00 0.00000E+00
 3.40000E+00 0.00000E+00
 3.60000E+00 0.00000E+00
 3.80000E+00 0.00000E+00
 4.00000E+00 0.00000E+00
 4.20000E+00 0.00000E+00
 4.40000E+00 0.00000E+00
 4.60000E+00 1.30224E+01
 4.80000E+00 2.02077E+01
 5.00000E+00 2.48712E+01
 5.50000E+00 2.92125E+01
 6.00000E+00 3.12578E+01
 6.50000E+00 3.36729E+01
 7.00000E+00 3.62203E+01
 7.50000E+00 3.90928E+01
 8.00000E+00 4.17129E+01
 8.50000E+00 4.23814E+01
 9.00000E+00 3.93484E+01
 9.50000E+00 3.35381E+01
 1.00000E+01 2.66577E+01
 1.10000E+01 1.51293E+01
 1.20000E+01 8.50716E+00
 1.30000E+01 5.52483E+00
 1.40000E+01 4.24804E+00
 1.50000E+01 3.64639E+00
 1.60000E+01 3.33652E+00
 1.70000E+01 3.16946E+00
 1.80000E+01 2.95969E+00
 1.90000E+01 2.79117E+00
 2.00000E+01 2.63430E+00
 2.10000E+01 2.48531E+00
 2.20000E+01 2.39263E+00
 2.30000E+01 2.26103E+00
 2.40000E+01 2.10540E+00
 2.50000E+01 1.99391E+00
 2.60000E+01 1.88727E+00
 2.70000E+01 1.74783E+00
 2.80000E+01 1.66928E+00
 2.90000E+01 1.61613E+00
 3.00000E+01 1.46673E+00
