# n + 208Pb: Gamma-ray intensity - 208Pb: Level 13 --> Level  0 - gamma energy    4.144000
# E-initial  =   4.144000 E-final=   0.000000
# E-threshold= 4.16410E+00
# # energies =    67
#    E           xs
 1.00000E-11 0.00000E+00
 2.53000E-08 0.00000E+00
 2.00000E-07 0.00000E+00
 1.00000E-06 0.00000E+00
 1.00000E-03 0.00000E+00
 2.00000E-03 0.00000E+00
 5.00000E-03 0.00000E+00
 1.00000E-02 0.00000E+00
 2.00000E-02 0.00000E+00
 5.00000E-02 0.00000E+00
 1.00000E-01 0.00000E+00
 2.00000E-01 0.00000E+00
 3.00000E-01 0.00000E+00
 4.00000E-01 0.00000E+00
 5.00000E-01 0.00000E+00
 7.50000E-01 0.00000E+00
 1.00000E+00 0.00000E+00
 1.20000E+00 0.00000E+00
 1.40000E+00 0.00000E+00
 1.60000E+00 0.00000E+00
 1.80000E+00 0.00000E+00
 2.00000E+00 0.00000E+00
 2.20000E+00 0.00000E+00
 2.40000E+00 0.00000E+00
 2.60000E+00 0.00000E+00
 2.80000E+00 0.00000E+00
 3.00000E+00 0.00000E+00
 3.20000E+00 0.00000E+00
 3.40000E+00 0.00000E+00
 3.60000E+00 0.00000E+00
 3.80000E+00 0.00000E+00
 4.00000E+00 0.00000E+00
 4.20000E+00 1.50449E+01
 4.40000E+00 5.42439E+01
 4.60000E+00 7.16047E+01
 4.80000E+00 7.73234E+01
 5.00000E+00 7.71870E+01
 5.50000E+00 7.05628E+01
 6.00000E+00 6.33078E+01
 6.50000E+00 5.40415E+01
 7.00000E+00 4.54405E+01
 7.50000E+00 3.91152E+01
 8.00000E+00 3.10388E+01
 8.50000E+00 2.31984E+01
 9.00000E+00 1.70627E+01
 9.50000E+00 1.17641E+01
 1.00000E+01 8.20702E+00
 1.10000E+01 4.25832E+00
 1.20000E+01 2.41794E+00
 1.30000E+01 1.74326E+00
 1.40000E+01 1.38039E+00
 1.50000E+01 1.21393E+00
 1.60000E+01 1.08222E+00
 1.70000E+01 9.96896E-01
 1.80000E+01 9.83497E-01
 1.90000E+01 8.98977E-01
 2.00000E+01 8.81169E-01
 2.10000E+01 7.99323E-01
 2.20000E+01 8.05481E-01
 2.30000E+01 7.17966E-01
 2.40000E+01 6.87864E-01
 2.50000E+01 6.81993E-01
 2.60000E+01 6.51401E-01
 2.70000E+01 5.85936E-01
 2.80000E+01 5.60821E-01
 2.90000E+01 5.66610E-01
 3.00000E+01 5.44130E-01
