# n + 208Pb: Gamma-ray intensity - 208Pb: Level 28 --> Level 18 - gamma energy    0.436452
# E-initial  =   4.698323 E-final=   4.261871
# E-threshold= 4.72111E+00
# # energies =    67
#    E           xs
 1.00000E-11 0.00000E+00
 2.53000E-08 0.00000E+00
 2.00000E-07 0.00000E+00
 1.00000E-06 0.00000E+00
 1.00000E-03 0.00000E+00
 2.00000E-03 0.00000E+00
 5.00000E-03 0.00000E+00
 1.00000E-02 0.00000E+00
 2.00000E-02 0.00000E+00
 5.00000E-02 0.00000E+00
 1.00000E-01 0.00000E+00
 2.00000E-01 0.00000E+00
 3.00000E-01 0.00000E+00
 4.00000E-01 0.00000E+00
 5.00000E-01 0.00000E+00
 7.50000E-01 0.00000E+00
 1.00000E+00 0.00000E+00
 1.20000E+00 0.00000E+00
 1.40000E+00 0.00000E+00
 1.60000E+00 0.00000E+00
 1.80000E+00 0.00000E+00
 2.00000E+00 0.00000E+00
 2.20000E+00 0.00000E+00
 2.40000E+00 0.00000E+00
 2.60000E+00 0.00000E+00
 2.80000E+00 0.00000E+00
 3.00000E+00 0.00000E+00
 3.20000E+00 0.00000E+00
 3.40000E+00 0.00000E+00
 3.60000E+00 0.00000E+00
 3.80000E+00 0.00000E+00
 4.00000E+00 0.00000E+00
 4.20000E+00 0.00000E+00
 4.40000E+00 0.00000E+00
 4.60000E+00 0.00000E+00
 4.80000E+00 4.85644E-01
 5.00000E+00 1.02489E+00
 5.50000E+00 1.42162E+00
 6.00000E+00 1.27408E+00
 6.50000E+00 1.13152E+00
 7.00000E+00 1.01154E+00
 7.50000E+00 9.03160E-01
 8.00000E+00 7.63095E-01
 8.50000E+00 6.07708E-01
 9.00000E+00 4.71078E-01
 9.50000E+00 3.49724E-01
 1.00000E+01 2.58629E-01
 1.10000E+01 1.51165E-01
 1.20000E+01 1.02352E-01
 1.30000E+01 8.24700E-02
 1.40000E+01 7.24608E-02
 1.50000E+01 6.70401E-02
 1.60000E+01 6.27370E-02
 1.70000E+01 5.97716E-02
 1.80000E+01 5.78544E-02
 1.90000E+01 5.59986E-02
 2.00000E+01 5.46593E-02
 2.10000E+01 5.25472E-02
 2.20000E+01 5.14431E-02
 2.30000E+01 4.91578E-02
 2.40000E+01 4.73174E-02
 2.50000E+01 4.62916E-02
 2.60000E+01 4.45471E-02
 2.70000E+01 4.31949E-02
 2.80000E+01 4.16491E-02
 2.90000E+01 4.10132E-02
 3.00000E+01 3.95602E-02
