# n + 208Pb: Gamma-ray intensity - 208Pb: Level 16 --> Level  1 - gamma energy    1.615068
# E-initial  =   4.229590 E-final=   2.614522
# E-threshold= 4.25010E+00
# # energies =    67
#    E           xs
 1.00000E-11 0.00000E+00
 2.53000E-08 0.00000E+00
 2.00000E-07 0.00000E+00
 1.00000E-06 0.00000E+00
 1.00000E-03 0.00000E+00
 2.00000E-03 0.00000E+00
 5.00000E-03 0.00000E+00
 1.00000E-02 0.00000E+00
 2.00000E-02 0.00000E+00
 5.00000E-02 0.00000E+00
 1.00000E-01 0.00000E+00
 2.00000E-01 0.00000E+00
 3.00000E-01 0.00000E+00
 4.00000E-01 0.00000E+00
 5.00000E-01 0.00000E+00
 7.50000E-01 0.00000E+00
 1.00000E+00 0.00000E+00
 1.20000E+00 0.00000E+00
 1.40000E+00 0.00000E+00
 1.60000E+00 0.00000E+00
 1.80000E+00 0.00000E+00
 2.00000E+00 0.00000E+00
 2.20000E+00 0.00000E+00
 2.40000E+00 0.00000E+00
 2.60000E+00 0.00000E+00
 2.80000E+00 0.00000E+00
 3.00000E+00 0.00000E+00
 3.20000E+00 0.00000E+00
 3.40000E+00 0.00000E+00
 3.60000E+00 0.00000E+00
 3.80000E+00 0.00000E+00
 4.00000E+00 0.00000E+00
 4.20000E+00 0.00000E+00
 4.40000E+00 3.69704E+01
 4.60000E+00 5.78895E+01
 4.80000E+00 6.81625E+01
 5.00000E+00 6.96436E+01
 5.50000E+00 5.90655E+01
 6.00000E+00 4.89076E+01
 6.50000E+00 4.17272E+01
 7.00000E+00 3.65132E+01
 7.50000E+00 3.30507E+01
 8.00000E+00 2.77909E+01
 8.50000E+00 2.17666E+01
 9.00000E+00 1.64540E+01
 9.50000E+00 1.15700E+01
 1.00000E+01 8.07363E+00
 1.10000E+01 4.08743E+00
 1.20000E+01 2.28385E+00
 1.30000E+01 1.60901E+00
 1.40000E+01 1.28341E+00
 1.50000E+01 1.13152E+00
 1.60000E+01 1.01530E+00
 1.70000E+01 9.39081E-01
 1.80000E+01 9.12575E-01
 1.90000E+01 8.46658E-01
 2.00000E+01 8.28567E-01
 2.10000E+01 7.57411E-01
 2.20000E+01 7.49684E-01
 2.30000E+01 6.81608E-01
 2.40000E+01 6.52181E-01
 2.50000E+01 6.38234E-01
 2.60000E+01 6.08109E-01
 2.70000E+01 5.60483E-01
 2.80000E+01 5.33530E-01
 2.90000E+01 5.30689E-01
 3.00000E+01 5.07760E-01
