# n + 208Pb: Gamma-ray intensity - 208Pb: Level 29 --> Level  8 - gamma energy    0.713289
# E-initial  =   4.708727 E-final=   3.995438
# E-threshold= 4.73156E+00
# # energies =    67
#    E           xs
 1.00000E-11 0.00000E+00
 2.53000E-08 0.00000E+00
 2.00000E-07 0.00000E+00
 1.00000E-06 0.00000E+00
 1.00000E-03 0.00000E+00
 2.00000E-03 0.00000E+00
 5.00000E-03 0.00000E+00
 1.00000E-02 0.00000E+00
 2.00000E-02 0.00000E+00
 5.00000E-02 0.00000E+00
 1.00000E-01 0.00000E+00
 2.00000E-01 0.00000E+00
 3.00000E-01 0.00000E+00
 4.00000E-01 0.00000E+00
 5.00000E-01 0.00000E+00
 7.50000E-01 0.00000E+00
 1.00000E+00 0.00000E+00
 1.20000E+00 0.00000E+00
 1.40000E+00 0.00000E+00
 1.60000E+00 0.00000E+00
 1.80000E+00 0.00000E+00
 2.00000E+00 0.00000E+00
 2.20000E+00 0.00000E+00
 2.40000E+00 0.00000E+00
 2.60000E+00 0.00000E+00
 2.80000E+00 0.00000E+00
 3.00000E+00 0.00000E+00
 3.20000E+00 0.00000E+00
 3.40000E+00 0.00000E+00
 3.60000E+00 0.00000E+00
 3.80000E+00 0.00000E+00
 4.00000E+00 0.00000E+00
 4.20000E+00 0.00000E+00
 4.40000E+00 0.00000E+00
 4.60000E+00 0.00000E+00
 4.80000E+00 4.46409E-01
 5.00000E+00 9.69617E-01
 5.50000E+00 1.47921E+00
 6.00000E+00 1.41883E+00
 6.50000E+00 1.33244E+00
 7.00000E+00 1.26470E+00
 7.50000E+00 1.20222E+00
 8.00000E+00 1.13352E+00
 8.50000E+00 1.01862E+00
 9.00000E+00 8.50370E-01
 9.50000E+00 6.72544E-01
 1.00000E+01 5.11408E-01
 1.10000E+01 2.87022E-01
 1.20000E+01 1.79433E-01
 1.30000E+01 1.32281E-01
 1.40000E+01 1.11321E-01
 1.50000E+01 1.00494E-01
 1.60000E+01 9.34465E-02
 1.70000E+01 8.91363E-02
 1.80000E+01 8.47235E-02
 1.90000E+01 8.18473E-02
 2.00000E+01 7.88151E-02
 2.10000E+01 7.58359E-02
 2.20000E+01 7.35912E-02
 2.30000E+01 7.05062E-02
 2.40000E+01 6.72539E-02
 2.50000E+01 6.50954E-02
 2.60000E+01 6.18552E-02
 2.70000E+01 6.01974E-02
 2.80000E+01 5.74549E-02
 2.90000E+01 5.59597E-02
 3.00000E+01 5.33068E-02
