# n + 208Pb: Gamma-ray intensity - 208Pb: Level 19 --> Level  4 - gamma energy    0.588109
# E-initial  =   4.296560 E-final=   3.708451
# E-threshold= 4.31740E+00
# # energies =    67
#    E           xs
 1.00000E-11 0.00000E+00
 2.53000E-08 0.00000E+00
 2.00000E-07 0.00000E+00
 1.00000E-06 0.00000E+00
 1.00000E-03 0.00000E+00
 2.00000E-03 0.00000E+00
 5.00000E-03 0.00000E+00
 1.00000E-02 0.00000E+00
 2.00000E-02 0.00000E+00
 5.00000E-02 0.00000E+00
 1.00000E-01 0.00000E+00
 2.00000E-01 0.00000E+00
 3.00000E-01 0.00000E+00
 4.00000E-01 0.00000E+00
 5.00000E-01 0.00000E+00
 7.50000E-01 0.00000E+00
 1.00000E+00 0.00000E+00
 1.20000E+00 0.00000E+00
 1.40000E+00 0.00000E+00
 1.60000E+00 0.00000E+00
 1.80000E+00 0.00000E+00
 2.00000E+00 0.00000E+00
 2.20000E+00 0.00000E+00
 2.40000E+00 0.00000E+00
 2.60000E+00 0.00000E+00
 2.80000E+00 0.00000E+00
 3.00000E+00 0.00000E+00
 3.20000E+00 0.00000E+00
 3.40000E+00 0.00000E+00
 3.60000E+00 0.00000E+00
 3.80000E+00 0.00000E+00
 4.00000E+00 0.00000E+00
 4.20000E+00 0.00000E+00
 4.40000E+00 1.00746E+01
 4.60000E+00 1.91957E+01
 4.80000E+00 2.54452E+01
 5.00000E+00 2.86884E+01
 5.50000E+00 2.93665E+01
 6.00000E+00 2.77507E+01
 6.50000E+00 2.64428E+01
 7.00000E+00 2.54860E+01
 7.50000E+00 2.50747E+01
 8.00000E+00 2.44433E+01
 8.50000E+00 2.24148E+01
 9.00000E+00 1.88902E+01
 9.50000E+00 1.49670E+01
 1.00000E+01 1.13414E+01
 1.10000E+01 6.21991E+00
 1.20000E+01 3.74111E+00
 1.30000E+01 2.66208E+00
 1.40000E+01 2.18577E+00
 1.50000E+01 1.94151E+00
 1.60000E+01 1.78486E+00
 1.70000E+01 1.68748E+00
 1.80000E+01 1.58492E+00
 1.90000E+01 1.50887E+00
 2.00000E+01 1.43703E+00
 2.10000E+01 1.36812E+00
 2.20000E+01 1.31228E+00
 2.30000E+01 1.24731E+00
 2.40000E+01 1.17960E+00
 2.50000E+01 1.12391E+00
 2.60000E+01 1.06252E+00
 2.70000E+01 1.02125E+00
 2.80000E+01 9.73534E-01
 2.90000E+01 9.41058E-01
 3.00000E+01 8.94002E-01
