# n + 208Pb: Gamma-ray intensity - 208Pb: Level 28 --> Level  0 - gamma energy    4.698323
# E-initial  =   4.698323 E-final=   0.000000
# E-threshold= 4.72111E+00
# # energies =    67
#    E           xs
 1.00000E-11 0.00000E+00
 2.53000E-08 0.00000E+00
 2.00000E-07 0.00000E+00
 1.00000E-06 0.00000E+00
 1.00000E-03 0.00000E+00
 2.00000E-03 0.00000E+00
 5.00000E-03 0.00000E+00
 1.00000E-02 0.00000E+00
 2.00000E-02 0.00000E+00
 5.00000E-02 0.00000E+00
 1.00000E-01 0.00000E+00
 2.00000E-01 0.00000E+00
 3.00000E-01 0.00000E+00
 4.00000E-01 0.00000E+00
 5.00000E-01 0.00000E+00
 7.50000E-01 0.00000E+00
 1.00000E+00 0.00000E+00
 1.20000E+00 0.00000E+00
 1.40000E+00 0.00000E+00
 1.60000E+00 0.00000E+00
 1.80000E+00 0.00000E+00
 2.00000E+00 0.00000E+00
 2.20000E+00 0.00000E+00
 2.40000E+00 0.00000E+00
 2.60000E+00 0.00000E+00
 2.80000E+00 0.00000E+00
 3.00000E+00 0.00000E+00
 3.20000E+00 0.00000E+00
 3.40000E+00 0.00000E+00
 3.60000E+00 0.00000E+00
 3.80000E+00 0.00000E+00
 4.00000E+00 0.00000E+00
 4.20000E+00 0.00000E+00
 4.40000E+00 0.00000E+00
 4.60000E+00 0.00000E+00
 4.80000E+00 2.70521E-01
 5.00000E+00 5.70900E-01
 5.50000E+00 7.91896E-01
 6.00000E+00 7.09709E-01
 6.50000E+00 6.30295E-01
 7.00000E+00 5.63466E-01
 7.50000E+00 5.03092E-01
 8.00000E+00 4.25071E-01
 8.50000E+00 3.38515E-01
 9.00000E+00 2.62407E-01
 9.50000E+00 1.94809E-01
 1.00000E+01 1.44065E-01
 1.10000E+01 8.42041E-02
 1.20000E+01 5.70140E-02
 1.30000E+01 4.59388E-02
 1.40000E+01 4.03633E-02
 1.50000E+01 3.73437E-02
 1.60000E+01 3.49468E-02
 1.70000E+01 3.32949E-02
 1.80000E+01 3.22270E-02
 1.90000E+01 3.11932E-02
 2.00000E+01 3.04472E-02
 2.10000E+01 2.92707E-02
 2.20000E+01 2.86556E-02
 2.30000E+01 2.73826E-02
 2.40000E+01 2.63575E-02
 2.50000E+01 2.57861E-02
 2.60000E+01 2.48143E-02
 2.70000E+01 2.40611E-02
 2.80000E+01 2.32000E-02
 2.90000E+01 2.28458E-02
 3.00000E+01 2.20365E-02
