# n + 208Pb: Gamma-ray intensity - 207Pb: Level  6 --> Level  4 - gamma energy    0.322555
# E-initial  =   2.662476 E-final=   2.339921
# E-threshold= 1.00790E+01
# # energies =    67
#    E           xs
 1.00000E-11 0.00000E+00
 2.53000E-08 0.00000E+00
 2.00000E-07 0.00000E+00
 1.00000E-06 0.00000E+00
 1.00000E-03 0.00000E+00
 2.00000E-03 0.00000E+00
 5.00000E-03 0.00000E+00
 1.00000E-02 0.00000E+00
 2.00000E-02 0.00000E+00
 5.00000E-02 0.00000E+00
 1.00000E-01 0.00000E+00
 2.00000E-01 0.00000E+00
 3.00000E-01 0.00000E+00
 4.00000E-01 0.00000E+00
 5.00000E-01 0.00000E+00
 7.50000E-01 0.00000E+00
 1.00000E+00 0.00000E+00
 1.20000E+00 0.00000E+00
 1.40000E+00 0.00000E+00
 1.60000E+00 0.00000E+00
 1.80000E+00 0.00000E+00
 2.00000E+00 0.00000E+00
 2.20000E+00 0.00000E+00
 2.40000E+00 0.00000E+00
 2.60000E+00 0.00000E+00
 2.80000E+00 0.00000E+00
 3.00000E+00 0.00000E+00
 3.20000E+00 0.00000E+00
 3.40000E+00 0.00000E+00
 3.60000E+00 0.00000E+00
 3.80000E+00 0.00000E+00
 4.00000E+00 0.00000E+00
 4.20000E+00 0.00000E+00
 4.40000E+00 0.00000E+00
 4.60000E+00 0.00000E+00
 4.80000E+00 0.00000E+00
 5.00000E+00 0.00000E+00
 5.50000E+00 0.00000E+00
 6.00000E+00 0.00000E+00
 6.50000E+00 0.00000E+00
 7.00000E+00 0.00000E+00
 7.50000E+00 0.00000E+00
 8.00000E+00 0.00000E+00
 8.50000E+00 0.00000E+00
 9.00000E+00 0.00000E+00
 9.50000E+00 0.00000E+00
 1.00000E+01 0.00000E+00
 1.10000E+01 2.71347E-01
 1.20000E+01 9.33737E-01
 1.30000E+01 1.48367E+00
 1.40000E+01 1.72573E+00
 1.50000E+01 1.77975E+00
 1.60000E+01 1.70702E+00
 1.70000E+01 1.50214E+00
 1.80000E+01 1.22732E+00
 1.90000E+01 9.54883E-01
 2.00000E+01 7.31604E-01
 2.10000E+01 5.68283E-01
 2.20000E+01 4.61953E-01
 2.30000E+01 3.96926E-01
 2.40000E+01 3.54077E-01
 2.50000E+01 3.25515E-01
 2.60000E+01 3.07509E-01
 2.70000E+01 2.90235E-01
 2.80000E+01 2.81307E-01
 2.90000E+01 2.70686E-01
 3.00000E+01 2.60819E-01
