# n + 208Pb: Gamma-ray intensity - 208Pb: Level 16 --> Level  0 - gamma energy    4.229590
# E-initial  =   4.229590 E-final=   0.000000
# E-threshold= 4.25010E+00
# # energies =    67
#    E           xs
 1.00000E-11 0.00000E+00
 2.53000E-08 0.00000E+00
 2.00000E-07 0.00000E+00
 1.00000E-06 0.00000E+00
 1.00000E-03 0.00000E+00
 2.00000E-03 0.00000E+00
 5.00000E-03 0.00000E+00
 1.00000E-02 0.00000E+00
 2.00000E-02 0.00000E+00
 5.00000E-02 0.00000E+00
 1.00000E-01 0.00000E+00
 2.00000E-01 0.00000E+00
 3.00000E-01 0.00000E+00
 4.00000E-01 0.00000E+00
 5.00000E-01 0.00000E+00
 7.50000E-01 0.00000E+00
 1.00000E+00 0.00000E+00
 1.20000E+00 0.00000E+00
 1.40000E+00 0.00000E+00
 1.60000E+00 0.00000E+00
 1.80000E+00 0.00000E+00
 2.00000E+00 0.00000E+00
 2.20000E+00 0.00000E+00
 2.40000E+00 0.00000E+00
 2.60000E+00 0.00000E+00
 2.80000E+00 0.00000E+00
 3.00000E+00 0.00000E+00
 3.20000E+00 0.00000E+00
 3.40000E+00 0.00000E+00
 3.60000E+00 0.00000E+00
 3.80000E+00 0.00000E+00
 4.00000E+00 0.00000E+00
 4.20000E+00 0.00000E+00
 4.40000E+00 7.90939E+00
 4.60000E+00 1.23848E+01
 4.80000E+00 1.45826E+01
 5.00000E+00 1.48994E+01
 5.50000E+00 1.26364E+01
 6.00000E+00 1.04632E+01
 6.50000E+00 8.92704E+00
 7.00000E+00 7.81157E+00
 7.50000E+00 7.07082E+00
 8.00000E+00 5.94554E+00
 8.50000E+00 4.65672E+00
 9.00000E+00 3.52014E+00
 9.50000E+00 2.47526E+00
 1.00000E+01 1.72726E+00
 1.10000E+01 8.74458E-01
 1.20000E+01 4.88603E-01
 1.30000E+01 3.44230E-01
 1.40000E+01 2.74571E-01
 1.50000E+01 2.42076E-01
 1.60000E+01 2.17211E-01
 1.70000E+01 2.00905E-01
 1.80000E+01 1.95235E-01
 1.90000E+01 1.81133E-01
 2.00000E+01 1.77262E-01
 2.10000E+01 1.62039E-01
 2.20000E+01 1.60386E-01
 2.30000E+01 1.45822E-01
 2.40000E+01 1.39526E-01
 2.50000E+01 1.36543E-01
 2.60000E+01 1.30098E-01
 2.70000E+01 1.19909E-01
 2.80000E+01 1.14143E-01
 2.90000E+01 1.13535E-01
 3.00000E+01 1.08629E-01
