# n + 208Pb: Gamma-ray intensity - 208Pb: Level 27 --> Level  5 - gamma energy    0.760300
# E-initial  =   4.680266 E-final=   3.919966
# E-threshold= 4.70296E+00
# # energies =    67
#    E           xs
 1.00000E-11 0.00000E+00
 2.53000E-08 0.00000E+00
 2.00000E-07 0.00000E+00
 1.00000E-06 0.00000E+00
 1.00000E-03 0.00000E+00
 2.00000E-03 0.00000E+00
 5.00000E-03 0.00000E+00
 1.00000E-02 0.00000E+00
 2.00000E-02 0.00000E+00
 5.00000E-02 0.00000E+00
 1.00000E-01 0.00000E+00
 2.00000E-01 0.00000E+00
 3.00000E-01 0.00000E+00
 4.00000E-01 0.00000E+00
 5.00000E-01 0.00000E+00
 7.50000E-01 0.00000E+00
 1.00000E+00 0.00000E+00
 1.20000E+00 0.00000E+00
 1.40000E+00 0.00000E+00
 1.60000E+00 0.00000E+00
 1.80000E+00 0.00000E+00
 2.00000E+00 0.00000E+00
 2.20000E+00 0.00000E+00
 2.40000E+00 0.00000E+00
 2.60000E+00 0.00000E+00
 2.80000E+00 0.00000E+00
 3.00000E+00 0.00000E+00
 3.20000E+00 0.00000E+00
 3.40000E+00 0.00000E+00
 3.60000E+00 0.00000E+00
 3.80000E+00 0.00000E+00
 4.00000E+00 0.00000E+00
 4.20000E+00 0.00000E+00
 4.40000E+00 0.00000E+00
 4.60000E+00 0.00000E+00
 4.80000E+00 6.10007E-01
 5.00000E+00 2.56124E+00
 5.50000E+00 6.52204E+00
 6.00000E+00 8.84674E+00
 6.50000E+00 1.14948E+01
 7.00000E+00 1.43323E+01
 7.50000E+00 1.71512E+01
 8.00000E+00 1.98542E+01
 8.50000E+00 2.19484E+01
 9.00000E+00 2.24010E+01
 9.50000E+00 2.07968E+01
 1.00000E+01 1.77702E+01
 1.10000E+01 1.13436E+01
 1.20000E+01 6.81277E+00
 1.30000E+01 4.61324E+00
 1.40000E+01 3.62503E+00
 1.50000E+01 3.17994E+00
 1.60000E+01 2.95762E+00
 1.70000E+01 2.85383E+00
 1.80000E+01 2.71150E+00
 1.90000E+01 2.59104E+00
 2.00000E+01 2.47116E+00
 2.10000E+01 2.35745E+00
 2.20000E+01 2.31110E+00
 2.30000E+01 2.19144E+00
 2.40000E+01 2.08572E+00
 2.50000E+01 1.98097E+00
 2.60000E+01 1.90112E+00
 2.70000E+01 1.76789E+00
 2.80000E+01 1.69903E+00
 2.90000E+01 1.65407E+00
 3.00000E+01 1.50836E+00
