# n + 208Pb: Gamma-ray intensity - 208Pb: Level 22 --> Level 15 - gamma energy    0.177008
# E-initial  =   4.383285 E-final=   4.206277
# E-threshold= 4.40454E+00
# # energies =    67
#    E           xs
 1.00000E-11 0.00000E+00
 2.53000E-08 0.00000E+00
 2.00000E-07 0.00000E+00
 1.00000E-06 0.00000E+00
 1.00000E-03 0.00000E+00
 2.00000E-03 0.00000E+00
 5.00000E-03 0.00000E+00
 1.00000E-02 0.00000E+00
 2.00000E-02 0.00000E+00
 5.00000E-02 0.00000E+00
 1.00000E-01 0.00000E+00
 2.00000E-01 0.00000E+00
 3.00000E-01 0.00000E+00
 4.00000E-01 0.00000E+00
 5.00000E-01 0.00000E+00
 7.50000E-01 0.00000E+00
 1.00000E+00 0.00000E+00
 1.20000E+00 0.00000E+00
 1.40000E+00 0.00000E+00
 1.60000E+00 0.00000E+00
 1.80000E+00 0.00000E+00
 2.00000E+00 0.00000E+00
 2.20000E+00 0.00000E+00
 2.40000E+00 0.00000E+00
 2.60000E+00 0.00000E+00
 2.80000E+00 0.00000E+00
 3.00000E+00 0.00000E+00
 3.20000E+00 0.00000E+00
 3.40000E+00 0.00000E+00
 3.60000E+00 0.00000E+00
 3.80000E+00 0.00000E+00
 4.00000E+00 0.00000E+00
 4.20000E+00 0.00000E+00
 4.40000E+00 0.00000E+00
 4.60000E+00 1.10665E-01
 4.80000E+00 1.71727E-01
 5.00000E+00 2.11357E-01
 5.50000E+00 2.48251E-01
 6.00000E+00 2.65632E-01
 6.50000E+00 2.86155E-01
 7.00000E+00 3.07803E-01
 7.50000E+00 3.32214E-01
 8.00000E+00 3.54480E-01
 8.50000E+00 3.60161E-01
 9.00000E+00 3.34386E-01
 9.50000E+00 2.85010E-01
 1.00000E+01 2.26539E-01
 1.10000E+01 1.28571E-01
 1.20000E+01 7.22947E-02
 1.30000E+01 4.69505E-02
 1.40000E+01 3.61003E-02
 1.50000E+01 3.09874E-02
 1.60000E+01 2.83541E-02
 1.70000E+01 2.69344E-02
 1.80000E+01 2.51517E-02
 1.90000E+01 2.37196E-02
 2.00000E+01 2.23865E-02
 2.10000E+01 2.11204E-02
 2.20000E+01 2.03328E-02
 2.30000E+01 1.92144E-02
 2.40000E+01 1.78919E-02
 2.50000E+01 1.69444E-02
 2.60000E+01 1.60382E-02
 2.70000E+01 1.48532E-02
 2.80000E+01 1.41857E-02
 2.90000E+01 1.37340E-02
 3.00000E+01 1.24644E-02
