# n + 208Pb: Gamma-ray intensity - 208Pb: Level  8 --> Level  1 - gamma energy    1.380916
# E-initial  =   3.995438 E-final=   2.614522
# E-threshold= 4.01482E+00
# # energies =    67
#    E           xs
 1.00000E-11 0.00000E+00
 2.53000E-08 0.00000E+00
 2.00000E-07 0.00000E+00
 1.00000E-06 0.00000E+00
 1.00000E-03 0.00000E+00
 2.00000E-03 0.00000E+00
 5.00000E-03 0.00000E+00
 1.00000E-02 0.00000E+00
 2.00000E-02 0.00000E+00
 5.00000E-02 0.00000E+00
 1.00000E-01 0.00000E+00
 2.00000E-01 0.00000E+00
 3.00000E-01 0.00000E+00
 4.00000E-01 0.00000E+00
 5.00000E-01 0.00000E+00
 7.50000E-01 0.00000E+00
 1.00000E+00 0.00000E+00
 1.20000E+00 0.00000E+00
 1.40000E+00 0.00000E+00
 1.60000E+00 0.00000E+00
 1.80000E+00 0.00000E+00
 2.00000E+00 0.00000E+00
 2.20000E+00 0.00000E+00
 2.40000E+00 0.00000E+00
 2.60000E+00 0.00000E+00
 2.80000E+00 0.00000E+00
 3.00000E+00 0.00000E+00
 3.20000E+00 0.00000E+00
 3.40000E+00 0.00000E+00
 3.60000E+00 0.00000E+00
 3.80000E+00 0.00000E+00
 4.00000E+00 0.00000E+00
 4.20000E+00 4.99155E+01
 4.40000E+00 7.08239E+01
 4.60000E+00 7.89166E+01
 4.80000E+00 8.10777E+01
 5.00000E+00 8.00783E+01
 5.50000E+00 7.42521E+01
 6.00000E+00 6.84337E+01
 6.50000E+00 6.32273E+01
 7.00000E+00 5.95295E+01
 7.50000E+00 5.73190E+01
 8.00000E+00 5.30340E+01
 8.50000E+00 4.52346E+01
 9.00000E+00 3.60239E+01
 9.50000E+00 2.70740E+01
 1.00000E+01 1.96135E+01
 1.10000E+01 1.00496E+01
 1.20000E+01 5.70599E+00
 1.30000E+01 3.89973E+00
 1.40000E+01 3.08063E+00
 1.50000E+01 2.67266E+00
 1.60000E+01 2.39709E+00
 1.70000E+01 2.22364E+00
 1.80000E+01 2.05809E+00
 1.90000E+01 1.92059E+00
 2.00000E+01 1.80609E+00
 2.10000E+01 1.68778E+00
 2.20000E+01 1.59796E+00
 2.30000E+01 1.49504E+00
 2.40000E+01 1.39345E+00
 2.50000E+01 1.30255E+00
 2.60000E+01 1.21762E+00
 2.70000E+01 1.15079E+00
 2.80000E+01 1.08916E+00
 2.90000E+01 1.04893E+00
 3.00000E+01 9.95251E-01
