# n + 208Pb: Gamma-ray intensity - 208Pb: Level 30 --> Level  3 - gamma energy    1.236739
# E-initial  =   4.711817 E-final=   3.475078
# E-threshold= 4.73467E+00
# # energies =    67
#    E           xs
 1.00000E-11 0.00000E+00
 2.53000E-08 0.00000E+00
 2.00000E-07 0.00000E+00
 1.00000E-06 0.00000E+00
 1.00000E-03 0.00000E+00
 2.00000E-03 0.00000E+00
 5.00000E-03 0.00000E+00
 1.00000E-02 0.00000E+00
 2.00000E-02 0.00000E+00
 5.00000E-02 0.00000E+00
 1.00000E-01 0.00000E+00
 2.00000E-01 0.00000E+00
 3.00000E-01 0.00000E+00
 4.00000E-01 0.00000E+00
 5.00000E-01 0.00000E+00
 7.50000E-01 0.00000E+00
 1.00000E+00 0.00000E+00
 1.20000E+00 0.00000E+00
 1.40000E+00 0.00000E+00
 1.60000E+00 0.00000E+00
 1.80000E+00 0.00000E+00
 2.00000E+00 0.00000E+00
 2.20000E+00 0.00000E+00
 2.40000E+00 0.00000E+00
 2.60000E+00 0.00000E+00
 2.80000E+00 0.00000E+00
 3.00000E+00 0.00000E+00
 3.20000E+00 0.00000E+00
 3.40000E+00 0.00000E+00
 3.60000E+00 0.00000E+00
 3.80000E+00 0.00000E+00
 4.00000E+00 0.00000E+00
 4.20000E+00 0.00000E+00
 4.40000E+00 0.00000E+00
 4.60000E+00 0.00000E+00
 4.80000E+00 2.71334E+00
 5.00000E+00 6.05129E+00
 5.50000E+00 8.94315E+00
 6.00000E+00 8.19868E+00
 6.50000E+00 7.35373E+00
 7.00000E+00 6.63738E+00
 7.50000E+00 5.98345E+00
 8.00000E+00 5.23576E+00
 8.50000E+00 4.30943E+00
 9.00000E+00 3.35476E+00
 9.50000E+00 2.47852E+00
 1.00000E+01 1.76551E+00
 1.10000E+01 8.75249E-01
 1.20000E+01 4.80669E-01
 1.30000E+01 3.17409E-01
 1.40000E+01 2.44883E-01
 1.50000E+01 2.12330E-01
 1.60000E+01 1.92630E-01
 1.70000E+01 1.82828E-01
 1.80000E+01 1.73301E-01
 1.90000E+01 1.67984E-01
 2.00000E+01 1.61732E-01
 2.10000E+01 1.54779E-01
 2.20000E+01 1.51978E-01
 2.30000E+01 1.44862E-01
 2.40000E+01 1.37108E-01
 2.50000E+01 1.34351E-01
 2.60000E+01 1.25478E-01
 2.70000E+01 1.22474E-01
 2.80000E+01 1.14510E-01
 2.90000E+01 1.12654E-01
 3.00000E+01 1.05440E-01
