# n + 208Pb: Gamma-ray intensity - 208Pb: Level 23 --> Level  4 - gamma energy    0.715196
# E-initial  =   4.423647 E-final=   3.708451
# E-threshold= 4.44510E+00
# # energies =    67
#    E           xs
 1.00000E-11 0.00000E+00
 2.53000E-08 0.00000E+00
 2.00000E-07 0.00000E+00
 1.00000E-06 0.00000E+00
 1.00000E-03 0.00000E+00
 2.00000E-03 0.00000E+00
 5.00000E-03 0.00000E+00
 1.00000E-02 0.00000E+00
 2.00000E-02 0.00000E+00
 5.00000E-02 0.00000E+00
 1.00000E-01 0.00000E+00
 2.00000E-01 0.00000E+00
 3.00000E-01 0.00000E+00
 4.00000E-01 0.00000E+00
 5.00000E-01 0.00000E+00
 7.50000E-01 0.00000E+00
 1.00000E+00 0.00000E+00
 1.20000E+00 0.00000E+00
 1.40000E+00 0.00000E+00
 1.60000E+00 0.00000E+00
 1.80000E+00 0.00000E+00
 2.00000E+00 0.00000E+00
 2.20000E+00 0.00000E+00
 2.40000E+00 0.00000E+00
 2.60000E+00 0.00000E+00
 2.80000E+00 0.00000E+00
 3.00000E+00 0.00000E+00
 3.20000E+00 0.00000E+00
 3.40000E+00 0.00000E+00
 3.60000E+00 0.00000E+00
 3.80000E+00 0.00000E+00
 4.00000E+00 0.00000E+00
 4.20000E+00 0.00000E+00
 4.40000E+00 0.00000E+00
 4.60000E+00 7.58640E-01
 4.80000E+00 1.58781E+00
 5.00000E+00 2.08823E+00
 5.50000E+00 2.73668E+00
 6.00000E+00 3.19052E+00
 6.50000E+00 3.40552E+00
 7.00000E+00 3.48980E+00
 7.50000E+00 3.71627E+00
 8.00000E+00 4.04140E+00
 8.50000E+00 4.21284E+00
 9.00000E+00 3.97943E+00
 9.50000E+00 3.43321E+00
 1.00000E+01 2.75929E+00
 1.10000E+01 1.57942E+00
 1.20000E+01 9.08035E-01
 1.30000E+01 6.07668E-01
 1.40000E+01 4.77260E-01
 1.50000E+01 4.16394E-01
 1.60000E+01 3.82298E-01
 1.70000E+01 3.63253E-01
 1.80000E+01 3.40914E-01
 1.90000E+01 3.22141E-01
 2.00000E+01 3.04792E-01
 2.10000E+01 2.90127E-01
 2.20000E+01 2.78436E-01
 2.30000E+01 2.65107E-01
 2.40000E+01 2.48299E-01
 2.50000E+01 2.35824E-01
 2.60000E+01 2.25409E-01
 2.70000E+01 2.09501E-01
 2.80000E+01 2.00010E-01
 2.90000E+01 1.95313E-01
 3.00000E+01 1.82233E-01
