# n + 208Pb: Gamma-ray intensity - 208Pb: Level 22 --> Level  5 - gamma energy    0.463319
# E-initial  =   4.383285 E-final=   3.919966
# E-threshold= 4.40454E+00
# # energies =    67
#    E           xs
 1.00000E-11 0.00000E+00
 2.53000E-08 0.00000E+00
 2.00000E-07 0.00000E+00
 1.00000E-06 0.00000E+00
 1.00000E-03 0.00000E+00
 2.00000E-03 0.00000E+00
 5.00000E-03 0.00000E+00
 1.00000E-02 0.00000E+00
 2.00000E-02 0.00000E+00
 5.00000E-02 0.00000E+00
 1.00000E-01 0.00000E+00
 2.00000E-01 0.00000E+00
 3.00000E-01 0.00000E+00
 4.00000E-01 0.00000E+00
 5.00000E-01 0.00000E+00
 7.50000E-01 0.00000E+00
 1.00000E+00 0.00000E+00
 1.20000E+00 0.00000E+00
 1.40000E+00 0.00000E+00
 1.60000E+00 0.00000E+00
 1.80000E+00 0.00000E+00
 2.00000E+00 0.00000E+00
 2.20000E+00 0.00000E+00
 2.40000E+00 0.00000E+00
 2.60000E+00 0.00000E+00
 2.80000E+00 0.00000E+00
 3.00000E+00 0.00000E+00
 3.20000E+00 0.00000E+00
 3.40000E+00 0.00000E+00
 3.60000E+00 0.00000E+00
 3.80000E+00 0.00000E+00
 4.00000E+00 0.00000E+00
 4.20000E+00 0.00000E+00
 4.40000E+00 0.00000E+00
 4.60000E+00 5.33914E-01
 4.80000E+00 8.28509E-01
 5.00000E+00 1.01971E+00
 5.50000E+00 1.19771E+00
 6.00000E+00 1.28156E+00
 6.50000E+00 1.38058E+00
 7.00000E+00 1.48502E+00
 7.50000E+00 1.60279E+00
 8.00000E+00 1.71022E+00
 8.50000E+00 1.73763E+00
 9.00000E+00 1.61327E+00
 9.50000E+00 1.37505E+00
 1.00000E+01 1.09296E+00
 1.10000E+01 6.20299E-01
 1.20000E+01 3.48792E-01
 1.30000E+01 2.26516E-01
 1.40000E+01 1.74169E-01
 1.50000E+01 1.49501E-01
 1.60000E+01 1.36797E-01
 1.70000E+01 1.29947E-01
 1.80000E+01 1.21347E-01
 1.90000E+01 1.14437E-01
 2.00000E+01 1.08006E-01
 2.10000E+01 1.01897E-01
 2.20000E+01 9.80974E-02
 2.30000E+01 9.27015E-02
 2.40000E+01 8.63207E-02
 2.50000E+01 8.17499E-02
 2.60000E+01 7.73776E-02
 2.70000E+01 7.16606E-02
 2.80000E+01 6.84402E-02
 2.90000E+01 6.62610E-02
 3.00000E+01 6.01356E-02
