# n + 208Pb: Gamma-ray intensity - 208Pb: Level 21 --> Level  1 - gamma energy    1.744148
# E-initial  =   4.358670 E-final=   2.614522
# E-threshold= 4.37981E+00
# # energies =    67
#    E           xs
 1.00000E-11 0.00000E+00
 2.53000E-08 0.00000E+00
 2.00000E-07 0.00000E+00
 1.00000E-06 0.00000E+00
 1.00000E-03 0.00000E+00
 2.00000E-03 0.00000E+00
 5.00000E-03 0.00000E+00
 1.00000E-02 0.00000E+00
 2.00000E-02 0.00000E+00
 5.00000E-02 0.00000E+00
 1.00000E-01 0.00000E+00
 2.00000E-01 0.00000E+00
 3.00000E-01 0.00000E+00
 4.00000E-01 0.00000E+00
 5.00000E-01 0.00000E+00
 7.50000E-01 0.00000E+00
 1.00000E+00 0.00000E+00
 1.20000E+00 0.00000E+00
 1.40000E+00 0.00000E+00
 1.60000E+00 0.00000E+00
 1.80000E+00 0.00000E+00
 2.00000E+00 0.00000E+00
 2.20000E+00 0.00000E+00
 2.40000E+00 0.00000E+00
 2.60000E+00 0.00000E+00
 2.80000E+00 0.00000E+00
 3.00000E+00 0.00000E+00
 3.20000E+00 0.00000E+00
 3.40000E+00 0.00000E+00
 3.60000E+00 0.00000E+00
 3.80000E+00 0.00000E+00
 4.00000E+00 0.00000E+00
 4.20000E+00 0.00000E+00
 4.40000E+00 1.05099E+00
 4.60000E+00 3.73213E+00
 4.80000E+00 5.28793E+00
 5.00000E+00 6.00490E+00
 5.50000E+00 5.89096E+00
 6.00000E+00 5.28467E+00
 6.50000E+00 4.79015E+00
 7.00000E+00 4.36824E+00
 7.50000E+00 4.06578E+00
 8.00000E+00 3.67818E+00
 8.50000E+00 3.09718E+00
 9.00000E+00 2.44546E+00
 9.50000E+00 1.82387E+00
 1.00000E+01 1.31055E+00
 1.10000E+01 6.60548E-01
 1.20000E+01 3.68596E-01
 1.30000E+01 2.47497E-01
 1.40000E+01 1.93115E-01
 1.50000E+01 1.67188E-01
 1.60000E+01 1.50422E-01
 1.70000E+01 1.40537E-01
 1.80000E+01 1.31099E-01
 1.90000E+01 1.24003E-01
 2.00000E+01 1.17562E-01
 2.10000E+01 1.10805E-01
 2.20000E+01 1.06327E-01
 2.30000E+01 1.00146E-01
 2.40000E+01 9.38660E-02
 2.50000E+01 8.94454E-02
 2.60000E+01 8.35254E-02
 2.70000E+01 7.99828E-02
 2.80000E+01 7.52917E-02
 2.90000E+01 7.31087E-02
 3.00000E+01 6.89662E-02
