# n + 208Pb: Gamma-ray intensity - 208Pb: Level  7 --> Level  2 - gamma energy    0.763451
# E-initial  =   3.961162 E-final=   3.197711
# E-threshold= 3.98037E+00
# # energies =    67
#    E           xs
 1.00000E-11 0.00000E+00
 2.53000E-08 0.00000E+00
 2.00000E-07 0.00000E+00
 1.00000E-06 0.00000E+00
 1.00000E-03 0.00000E+00
 2.00000E-03 0.00000E+00
 5.00000E-03 0.00000E+00
 1.00000E-02 0.00000E+00
 2.00000E-02 0.00000E+00
 5.00000E-02 0.00000E+00
 1.00000E-01 0.00000E+00
 2.00000E-01 0.00000E+00
 3.00000E-01 0.00000E+00
 4.00000E-01 0.00000E+00
 5.00000E-01 0.00000E+00
 7.50000E-01 0.00000E+00
 1.00000E+00 0.00000E+00
 1.20000E+00 0.00000E+00
 1.40000E+00 0.00000E+00
 1.60000E+00 0.00000E+00
 1.80000E+00 0.00000E+00
 2.00000E+00 0.00000E+00
 2.20000E+00 0.00000E+00
 2.40000E+00 0.00000E+00
 2.60000E+00 0.00000E+00
 2.80000E+00 0.00000E+00
 3.00000E+00 0.00000E+00
 3.20000E+00 0.00000E+00
 3.40000E+00 0.00000E+00
 3.60000E+00 0.00000E+00
 3.80000E+00 0.00000E+00
 4.00000E+00 1.02871E+01
 4.20000E+00 3.55478E+01
 4.40000E+00 4.78644E+01
 4.60000E+00 5.48311E+01
 4.80000E+00 5.91449E+01
 5.00000E+00 6.12965E+01
 5.50000E+00 6.17606E+01
 6.00000E+00 6.00935E+01
 6.50000E+00 5.82555E+01
 7.00000E+00 5.73684E+01
 7.50000E+00 5.76334E+01
 8.00000E+00 5.68193E+01
 8.50000E+00 5.23194E+01
 9.00000E+00 4.43274E+01
 9.50000E+00 3.53233E+01
 1.00000E+01 2.69659E+01
 1.10000E+01 1.50950E+01
 1.20000E+01 9.32108E+00
 1.30000E+01 6.81449E+00
 1.40000E+01 5.68898E+00
 1.50000E+01 5.09327E+00
 1.60000E+01 4.69444E+00
 1.70000E+01 4.43265E+00
 1.80000E+01 4.16139E+00
 1.90000E+01 3.94023E+00
 2.00000E+01 3.74366E+00
 2.10000E+01 3.55229E+00
 2.20000E+01 3.39343E+00
 2.30000E+01 3.22338E+00
 2.40000E+01 3.04824E+00
 2.50000E+01 2.89389E+00
 2.60000E+01 2.74747E+00
 2.70000E+01 2.62630E+00
 2.80000E+01 2.51444E+00
 2.90000E+01 2.42958E+00
 3.00000E+01 2.32042E+00
