# n + 208Pb: Gamma-ray intensity - 208Pb: Level 28 --> Level 16 - gamma energy    0.468733
# E-initial  =   4.698323 E-final=   4.229590
# E-threshold= 4.72111E+00
# # energies =    67
#    E           xs
 1.00000E-11 0.00000E+00
 2.53000E-08 0.00000E+00
 2.00000E-07 0.00000E+00
 1.00000E-06 0.00000E+00
 1.00000E-03 0.00000E+00
 2.00000E-03 0.00000E+00
 5.00000E-03 0.00000E+00
 1.00000E-02 0.00000E+00
 2.00000E-02 0.00000E+00
 5.00000E-02 0.00000E+00
 1.00000E-01 0.00000E+00
 2.00000E-01 0.00000E+00
 3.00000E-01 0.00000E+00
 4.00000E-01 0.00000E+00
 5.00000E-01 0.00000E+00
 7.50000E-01 0.00000E+00
 1.00000E+00 0.00000E+00
 1.20000E+00 0.00000E+00
 1.40000E+00 0.00000E+00
 1.60000E+00 0.00000E+00
 1.80000E+00 0.00000E+00
 2.00000E+00 0.00000E+00
 2.20000E+00 0.00000E+00
 2.40000E+00 0.00000E+00
 2.60000E+00 0.00000E+00
 2.80000E+00 0.00000E+00
 3.00000E+00 0.00000E+00
 3.20000E+00 0.00000E+00
 3.40000E+00 0.00000E+00
 3.60000E+00 0.00000E+00
 3.80000E+00 0.00000E+00
 4.00000E+00 0.00000E+00
 4.20000E+00 0.00000E+00
 4.40000E+00 0.00000E+00
 4.60000E+00 0.00000E+00
 4.80000E+00 6.14814E-01
 5.00000E+00 1.29748E+00
 5.50000E+00 1.79974E+00
 6.00000E+00 1.61295E+00
 6.50000E+00 1.43247E+00
 7.00000E+00 1.28059E+00
 7.50000E+00 1.14338E+00
 8.00000E+00 9.66060E-01
 8.50000E+00 7.69343E-01
 9.00000E+00 5.96373E-01
 9.50000E+00 4.42742E-01
 1.00000E+01 3.27417E-01
 1.10000E+01 1.91371E-01
 1.20000E+01 1.29576E-01
 1.30000E+01 1.04405E-01
 1.40000E+01 9.17336E-02
 1.50000E+01 8.48711E-02
 1.60000E+01 7.94235E-02
 1.70000E+01 7.56694E-02
 1.80000E+01 7.32422E-02
 1.90000E+01 7.08929E-02
 2.00000E+01 6.91974E-02
 2.10000E+01 6.65234E-02
 2.20000E+01 6.51257E-02
 2.30000E+01 6.22325E-02
 2.40000E+01 5.99027E-02
 2.50000E+01 5.86040E-02
 2.60000E+01 5.63956E-02
 2.70000E+01 5.46837E-02
 2.80000E+01 5.27267E-02
 2.90000E+01 5.19216E-02
 3.00000E+01 5.00823E-02
