# n + 208Pb: Gamma-ray intensity - 208Pb: Level  2 --> Level  1 - gamma energy    0.583189
# E-initial  =   3.197711 E-final=   2.614522
# E-threshold= 3.21322E+00
# # energies =    67
#    E           xs
 1.00000E-11 0.00000E+00
 2.53000E-08 0.00000E+00
 2.00000E-07 0.00000E+00
 1.00000E-06 0.00000E+00
 1.00000E-03 0.00000E+00
 2.00000E-03 0.00000E+00
 5.00000E-03 0.00000E+00
 1.00000E-02 0.00000E+00
 2.00000E-02 0.00000E+00
 5.00000E-02 0.00000E+00
 1.00000E-01 0.00000E+00
 2.00000E-01 0.00000E+00
 3.00000E-01 0.00000E+00
 4.00000E-01 0.00000E+00
 5.00000E-01 0.00000E+00
 7.50000E-01 0.00000E+00
 1.00000E+00 0.00000E+00
 1.20000E+00 0.00000E+00
 1.40000E+00 0.00000E+00
 1.60000E+00 0.00000E+00
 1.80000E+00 0.00000E+00
 2.00000E+00 0.00000E+00
 2.20000E+00 0.00000E+00
 2.40000E+00 0.00000E+00
 2.60000E+00 0.00000E+00
 2.80000E+00 0.00000E+00
 3.00000E+00 0.00000E+00
 3.20000E+00 0.00000E+00
 3.40000E+00 1.35037E+02
 3.60000E+00 2.48082E+02
 3.80000E+00 3.73149E+02
 4.00000E+00 5.23413E+02
 4.20000E+00 6.78462E+02
 4.40000E+00 8.13704E+02
 4.60000E+00 9.30413E+02
 4.80000E+00 1.01220E+03
 5.00000E+00 1.06561E+03
 5.50000E+00 1.12879E+03
 6.00000E+00 1.16020E+03
 6.50000E+00 1.19317E+03
 7.00000E+00 1.23867E+03
 7.50000E+00 1.30057E+03
 8.00000E+00 1.33664E+03
 8.50000E+00 1.29952E+03
 9.00000E+00 1.17767E+03
 9.50000E+00 1.00284E+03
 1.00000E+01 8.12371E+02
 1.10000E+01 4.97088E+02
 1.20000E+01 3.09879E+02
 1.30000E+01 2.21256E+02
 1.40000E+01 1.80195E+02
 1.50000E+01 1.60042E+02
 1.60000E+01 1.48327E+02
 1.70000E+01 1.41575E+02
 1.80000E+01 1.33932E+02
 1.90000E+01 1.26625E+02
 2.00000E+01 1.20575E+02
 2.10000E+01 1.14801E+02
 2.20000E+01 1.10976E+02
 2.30000E+01 1.05326E+02
 2.40000E+01 9.99430E+01
 2.50000E+01 9.44041E+01
 2.60000E+01 9.00303E+01
 2.70000E+01 8.47331E+01
 2.80000E+01 8.10187E+01
 2.90000E+01 7.83882E+01
 3.00000E+01 7.33128E+01
