# n + 208Pb: Gamma-ray intensity - 208Pb: Level 17 --> Level  3 - gamma energy    0.779717
# E-initial  =   4.254795 E-final=   3.475078
# E-threshold= 4.27543E+00
# # energies =    67
#    E           xs
 1.00000E-11 0.00000E+00
 2.53000E-08 0.00000E+00
 2.00000E-07 0.00000E+00
 1.00000E-06 0.00000E+00
 1.00000E-03 0.00000E+00
 2.00000E-03 0.00000E+00
 5.00000E-03 0.00000E+00
 1.00000E-02 0.00000E+00
 2.00000E-02 0.00000E+00
 5.00000E-02 0.00000E+00
 1.00000E-01 0.00000E+00
 2.00000E-01 0.00000E+00
 3.00000E-01 0.00000E+00
 4.00000E-01 0.00000E+00
 5.00000E-01 0.00000E+00
 7.50000E-01 0.00000E+00
 1.00000E+00 0.00000E+00
 1.20000E+00 0.00000E+00
 1.40000E+00 0.00000E+00
 1.60000E+00 0.00000E+00
 1.80000E+00 0.00000E+00
 2.00000E+00 0.00000E+00
 2.20000E+00 0.00000E+00
 2.40000E+00 0.00000E+00
 2.60000E+00 0.00000E+00
 2.80000E+00 0.00000E+00
 3.00000E+00 0.00000E+00
 3.20000E+00 0.00000E+00
 3.40000E+00 0.00000E+00
 3.60000E+00 0.00000E+00
 3.80000E+00 0.00000E+00
 4.00000E+00 0.00000E+00
 4.20000E+00 0.00000E+00
 4.40000E+00 2.11076E+00
 4.60000E+00 3.49909E+00
 4.80000E+00 4.36182E+00
 5.00000E+00 4.71300E+00
 5.50000E+00 4.42618E+00
 6.00000E+00 3.91526E+00
 6.50000E+00 3.50653E+00
 7.00000E+00 3.16883E+00
 7.50000E+00 2.91889E+00
 8.00000E+00 2.53068E+00
 8.50000E+00 2.03877E+00
 9.00000E+00 1.57985E+00
 9.50000E+00 1.15944E+00
 1.00000E+01 8.41828E-01
 1.10000E+01 4.66409E-01
 1.20000E+01 2.97035E-01
 1.30000E+01 2.29525E-01
 1.40000E+01 1.96046E-01
 1.50000E+01 1.78258E-01
 1.60000E+01 1.64408E-01
 1.70000E+01 1.54768E-01
 1.80000E+01 1.48443E-01
 1.90000E+01 1.41230E-01
 2.00000E+01 1.36634E-01
 2.10000E+01 1.29436E-01
 2.20000E+01 1.25535E-01
 2.30000E+01 1.18525E-01
 2.40000E+01 1.13440E-01
 2.50000E+01 1.09700E-01
 2.60000E+01 1.05311E-01
 2.70000E+01 1.00619E-01
 2.80000E+01 9.70328E-02
 2.90000E+01 9.51279E-02
 3.00000E+01 9.18363E-02
