# n + 208Pb: Gamma-ray intensity - 207Pb: Level  5 --> Level  2 - gamma energy    1.726173
# E-initial  =   2.623871 E-final=   0.897698
# E-threshold= 1.00402E+01
# # energies =    67
#    E           xs
 1.00000E-11 0.00000E+00
 2.53000E-08 0.00000E+00
 2.00000E-07 0.00000E+00
 1.00000E-06 0.00000E+00
 1.00000E-03 0.00000E+00
 2.00000E-03 0.00000E+00
 5.00000E-03 0.00000E+00
 1.00000E-02 0.00000E+00
 2.00000E-02 0.00000E+00
 5.00000E-02 0.00000E+00
 1.00000E-01 0.00000E+00
 2.00000E-01 0.00000E+00
 3.00000E-01 0.00000E+00
 4.00000E-01 0.00000E+00
 5.00000E-01 0.00000E+00
 7.50000E-01 0.00000E+00
 1.00000E+00 0.00000E+00
 1.20000E+00 0.00000E+00
 1.40000E+00 0.00000E+00
 1.60000E+00 0.00000E+00
 1.80000E+00 0.00000E+00
 2.00000E+00 0.00000E+00
 2.20000E+00 0.00000E+00
 2.40000E+00 0.00000E+00
 2.60000E+00 0.00000E+00
 2.80000E+00 0.00000E+00
 3.00000E+00 0.00000E+00
 3.20000E+00 0.00000E+00
 3.40000E+00 0.00000E+00
 3.60000E+00 0.00000E+00
 3.80000E+00 0.00000E+00
 4.00000E+00 0.00000E+00
 4.20000E+00 0.00000E+00
 4.40000E+00 0.00000E+00
 4.60000E+00 0.00000E+00
 4.80000E+00 0.00000E+00
 5.00000E+00 0.00000E+00
 5.50000E+00 0.00000E+00
 6.00000E+00 0.00000E+00
 6.50000E+00 0.00000E+00
 7.00000E+00 0.00000E+00
 7.50000E+00 0.00000E+00
 8.00000E+00 0.00000E+00
 8.50000E+00 0.00000E+00
 9.00000E+00 0.00000E+00
 9.50000E+00 0.00000E+00
 1.00000E+01 0.00000E+00
 1.10000E+01 8.91692E+00
 1.20000E+01 2.79703E+01
 1.30000E+01 4.07975E+01
 1.40000E+01 4.36352E+01
 1.50000E+01 4.26448E+01
 1.60000E+01 3.98876E+01
 1.70000E+01 3.57134E+01
 1.80000E+01 3.08493E+01
 1.90000E+01 2.56698E+01
 2.00000E+01 2.07818E+01
 2.10000E+01 1.66919E+01
 2.20000E+01 1.37846E+01
 2.30000E+01 1.19751E+01
 2.40000E+01 1.07083E+01
 2.50000E+01 9.87958E+00
 2.60000E+01 9.40512E+00
 2.70000E+01 8.93349E+00
 2.80000E+01 8.74025E+00
 2.90000E+01 8.47268E+00
 3.00000E+01 8.21073E+00
