# n + 208Pb: Gamma-ray intensity - 208Pb: Level 28 --> Level  8 - gamma energy    0.702885
# E-initial  =   4.698323 E-final=   3.995438
# E-threshold= 4.72111E+00
# # energies =    67
#    E           xs
 1.00000E-11 0.00000E+00
 2.53000E-08 0.00000E+00
 2.00000E-07 0.00000E+00
 1.00000E-06 0.00000E+00
 1.00000E-03 0.00000E+00
 2.00000E-03 0.00000E+00
 5.00000E-03 0.00000E+00
 1.00000E-02 0.00000E+00
 2.00000E-02 0.00000E+00
 5.00000E-02 0.00000E+00
 1.00000E-01 0.00000E+00
 2.00000E-01 0.00000E+00
 3.00000E-01 0.00000E+00
 4.00000E-01 0.00000E+00
 5.00000E-01 0.00000E+00
 7.50000E-01 0.00000E+00
 1.00000E+00 0.00000E+00
 1.20000E+00 0.00000E+00
 1.40000E+00 0.00000E+00
 1.60000E+00 0.00000E+00
 1.80000E+00 0.00000E+00
 2.00000E+00 0.00000E+00
 2.20000E+00 0.00000E+00
 2.40000E+00 0.00000E+00
 2.60000E+00 0.00000E+00
 2.80000E+00 0.00000E+00
 3.00000E+00 0.00000E+00
 3.20000E+00 0.00000E+00
 3.40000E+00 0.00000E+00
 3.60000E+00 0.00000E+00
 3.80000E+00 0.00000E+00
 4.00000E+00 0.00000E+00
 4.20000E+00 0.00000E+00
 4.40000E+00 0.00000E+00
 4.60000E+00 0.00000E+00
 4.80000E+00 2.52117E-01
 5.00000E+00 5.32059E-01
 5.50000E+00 7.38020E-01
 6.00000E+00 6.61424E-01
 6.50000E+00 5.87413E-01
 7.00000E+00 5.25131E-01
 7.50000E+00 4.68865E-01
 8.00000E+00 3.96152E-01
 8.50000E+00 3.15484E-01
 9.00000E+00 2.44555E-01
 9.50000E+00 1.81555E-01
 1.00000E+01 1.34264E-01
 1.10000E+01 7.84754E-02
 1.20000E+01 5.31351E-02
 1.30000E+01 4.28134E-02
 1.40000E+01 3.76172E-02
 1.50000E+01 3.48031E-02
 1.60000E+01 3.25692E-02
 1.70000E+01 3.10298E-02
 1.80000E+01 3.00344E-02
 1.90000E+01 2.90710E-02
 2.00000E+01 2.83758E-02
 2.10000E+01 2.72793E-02
 2.20000E+01 2.67061E-02
 2.30000E+01 2.55197E-02
 2.40000E+01 2.45643E-02
 2.50000E+01 2.40317E-02
 2.60000E+01 2.31261E-02
 2.70000E+01 2.24241E-02
 2.80000E+01 2.16216E-02
 2.90000E+01 2.12915E-02
 3.00000E+01 2.05372E-02
