# n + 208Pb: Gamma-ray intensity - 208Pb: Level 26 --> Level  2 - gamma energy    1.413037
# E-initial  =   4.610748 E-final=   3.197711
# E-threshold= 4.63311E+00
# # energies =    67
#    E           xs
 1.00000E-11 0.00000E+00
 2.53000E-08 0.00000E+00
 2.00000E-07 0.00000E+00
 1.00000E-06 0.00000E+00
 1.00000E-03 0.00000E+00
 2.00000E-03 0.00000E+00
 5.00000E-03 0.00000E+00
 1.00000E-02 0.00000E+00
 2.00000E-02 0.00000E+00
 5.00000E-02 0.00000E+00
 1.00000E-01 0.00000E+00
 2.00000E-01 0.00000E+00
 3.00000E-01 0.00000E+00
 4.00000E-01 0.00000E+00
 5.00000E-01 0.00000E+00
 7.50000E-01 0.00000E+00
 1.00000E+00 0.00000E+00
 1.20000E+00 0.00000E+00
 1.40000E+00 0.00000E+00
 1.60000E+00 0.00000E+00
 1.80000E+00 0.00000E+00
 2.00000E+00 0.00000E+00
 2.20000E+00 0.00000E+00
 2.40000E+00 0.00000E+00
 2.60000E+00 0.00000E+00
 2.80000E+00 0.00000E+00
 3.00000E+00 0.00000E+00
 3.20000E+00 0.00000E+00
 3.40000E+00 0.00000E+00
 3.60000E+00 0.00000E+00
 3.80000E+00 0.00000E+00
 4.00000E+00 0.00000E+00
 4.20000E+00 0.00000E+00
 4.40000E+00 0.00000E+00
 4.60000E+00 0.00000E+00
 4.80000E+00 4.07221E-01
 5.00000E+00 1.07989E+00
 5.50000E+00 4.25155E+00
 6.00000E+00 1.00680E+01
 6.50000E+00 1.75951E+01
 7.00000E+00 2.63096E+01
 7.50000E+00 3.72569E+01
 8.00000E+00 5.03281E+01
 8.50000E+00 6.43020E+01
 9.00000E+00 7.61987E+01
 9.50000E+00 8.23430E+01
 1.00000E+01 8.12977E+01
 1.10000E+01 6.57290E+01
 1.20000E+01 4.51351E+01
 1.30000E+01 3.21284E+01
 1.40000E+01 2.53290E+01
 1.50000E+01 2.24347E+01
 1.60000E+01 2.12672E+01
 1.70000E+01 2.09994E+01
 1.80000E+01 2.05006E+01
 1.90000E+01 1.93721E+01
 2.00000E+01 1.88372E+01
 2.10000E+01 1.83664E+01
 2.20000E+01 1.84105E+01
 2.30000E+01 1.76366E+01
 2.40000E+01 1.71054E+01
 2.50000E+01 1.61908E+01
 2.60000E+01 1.54974E+01
 2.70000E+01 1.45878E+01
 2.80000E+01 1.37847E+01
 2.90000E+01 1.33880E+01
 3.00000E+01 1.22345E+01
