# n + 208Pb: Gamma-ray intensity - 208Pb: Level 28 --> Level  1 - gamma energy    2.083801
# E-initial  =   4.698323 E-final=   2.614522
# E-threshold= 4.72111E+00
# # energies =    67
#    E           xs
 1.00000E-11 0.00000E+00
 2.53000E-08 0.00000E+00
 2.00000E-07 0.00000E+00
 1.00000E-06 0.00000E+00
 1.00000E-03 0.00000E+00
 2.00000E-03 0.00000E+00
 5.00000E-03 0.00000E+00
 1.00000E-02 0.00000E+00
 2.00000E-02 0.00000E+00
 5.00000E-02 0.00000E+00
 1.00000E-01 0.00000E+00
 2.00000E-01 0.00000E+00
 3.00000E-01 0.00000E+00
 4.00000E-01 0.00000E+00
 5.00000E-01 0.00000E+00
 7.50000E-01 0.00000E+00
 1.00000E+00 0.00000E+00
 1.20000E+00 0.00000E+00
 1.40000E+00 0.00000E+00
 1.60000E+00 0.00000E+00
 1.80000E+00 0.00000E+00
 2.00000E+00 0.00000E+00
 2.20000E+00 0.00000E+00
 2.40000E+00 0.00000E+00
 2.60000E+00 0.00000E+00
 2.80000E+00 0.00000E+00
 3.00000E+00 0.00000E+00
 3.20000E+00 0.00000E+00
 3.40000E+00 0.00000E+00
 3.60000E+00 0.00000E+00
 3.80000E+00 0.00000E+00
 4.00000E+00 0.00000E+00
 4.20000E+00 0.00000E+00
 4.40000E+00 0.00000E+00
 4.60000E+00 0.00000E+00
 4.80000E+00 1.66025E+00
 5.00000E+00 3.50375E+00
 5.50000E+00 4.86005E+00
 6.00000E+00 4.35565E+00
 6.50000E+00 3.86827E+00
 7.00000E+00 3.45813E+00
 7.50000E+00 3.08760E+00
 8.00000E+00 2.60876E+00
 8.50000E+00 2.07755E+00
 9.00000E+00 1.61045E+00
 9.50000E+00 1.19559E+00
 1.00000E+01 8.84163E-01
 1.10000E+01 5.16780E-01
 1.20000E+01 3.49908E-01
 1.30000E+01 2.81937E-01
 1.40000E+01 2.47719E-01
 1.50000E+01 2.29187E-01
 1.60000E+01 2.14476E-01
 1.70000E+01 2.04339E-01
 1.80000E+01 1.97784E-01
 1.90000E+01 1.91440E-01
 2.00000E+01 1.86862E-01
 2.10000E+01 1.79641E-01
 2.20000E+01 1.75866E-01
 2.30000E+01 1.68054E-01
 2.40000E+01 1.61762E-01
 2.50000E+01 1.58255E-01
 2.60000E+01 1.52291E-01
 2.70000E+01 1.47669E-01
 2.80000E+01 1.42384E-01
 2.90000E+01 1.40210E-01
 3.00000E+01 1.35243E-01
