# n + 208Pb: Gamma-ray intensity - 208Pb: Level 30 --> Level  1 - gamma energy    2.097295
# E-initial  =   4.711817 E-final=   2.614522
# E-threshold= 4.73467E+00
# # energies =    67
#    E           xs
 1.00000E-11 0.00000E+00
 2.53000E-08 0.00000E+00
 2.00000E-07 0.00000E+00
 1.00000E-06 0.00000E+00
 1.00000E-03 0.00000E+00
 2.00000E-03 0.00000E+00
 5.00000E-03 0.00000E+00
 1.00000E-02 0.00000E+00
 2.00000E-02 0.00000E+00
 5.00000E-02 0.00000E+00
 1.00000E-01 0.00000E+00
 2.00000E-01 0.00000E+00
 3.00000E-01 0.00000E+00
 4.00000E-01 0.00000E+00
 5.00000E-01 0.00000E+00
 7.50000E-01 0.00000E+00
 1.00000E+00 0.00000E+00
 1.20000E+00 0.00000E+00
 1.40000E+00 0.00000E+00
 1.60000E+00 0.00000E+00
 1.80000E+00 0.00000E+00
 2.00000E+00 0.00000E+00
 2.20000E+00 0.00000E+00
 2.40000E+00 0.00000E+00
 2.60000E+00 0.00000E+00
 2.80000E+00 0.00000E+00
 3.00000E+00 0.00000E+00
 3.20000E+00 0.00000E+00
 3.40000E+00 0.00000E+00
 3.60000E+00 0.00000E+00
 3.80000E+00 0.00000E+00
 4.00000E+00 0.00000E+00
 4.20000E+00 0.00000E+00
 4.40000E+00 0.00000E+00
 4.60000E+00 0.00000E+00
 4.80000E+00 9.35474E+00
 5.00000E+00 2.08629E+01
 5.50000E+00 3.08332E+01
 6.00000E+00 2.82665E+01
 6.50000E+00 2.53534E+01
 7.00000E+00 2.28836E+01
 7.50000E+00 2.06291E+01
 8.00000E+00 1.80513E+01
 8.50000E+00 1.48576E+01
 9.00000E+00 1.15662E+01
 9.50000E+00 8.54515E+00
 1.00000E+01 6.08694E+00
 1.10000E+01 3.01759E+00
 1.20000E+01 1.65720E+00
 1.30000E+01 1.09433E+00
 1.40000E+01 8.44279E-01
 1.50000E+01 7.32048E-01
 1.60000E+01 6.64130E-01
 1.70000E+01 6.30333E-01
 1.80000E+01 5.97489E-01
 1.90000E+01 5.79156E-01
 2.00000E+01 5.57601E-01
 2.10000E+01 5.33630E-01
 2.20000E+01 5.23971E-01
 2.30000E+01 4.99438E-01
 2.40000E+01 4.72705E-01
 2.50000E+01 4.63199E-01
 2.60000E+01 4.32608E-01
 2.70000E+01 4.22253E-01
 2.80000E+01 3.94797E-01
 2.90000E+01 3.88395E-01
 3.00000E+01 3.63524E-01
