# n + 208Pb: Gamma-ray intensity - 208Pb: Level 20 --> Level  3 - gamma energy    0.848868
# E-initial  =   4.323946 E-final=   3.475078
# E-threshold= 4.34492E+00
# # energies =    67
#    E           xs
 1.00000E-11 0.00000E+00
 2.53000E-08 0.00000E+00
 2.00000E-07 0.00000E+00
 1.00000E-06 0.00000E+00
 1.00000E-03 0.00000E+00
 2.00000E-03 0.00000E+00
 5.00000E-03 0.00000E+00
 1.00000E-02 0.00000E+00
 2.00000E-02 0.00000E+00
 5.00000E-02 0.00000E+00
 1.00000E-01 0.00000E+00
 2.00000E-01 0.00000E+00
 3.00000E-01 0.00000E+00
 4.00000E-01 0.00000E+00
 5.00000E-01 0.00000E+00
 7.50000E-01 0.00000E+00
 1.00000E+00 0.00000E+00
 1.20000E+00 0.00000E+00
 1.40000E+00 0.00000E+00
 1.60000E+00 0.00000E+00
 1.80000E+00 0.00000E+00
 2.00000E+00 0.00000E+00
 2.20000E+00 0.00000E+00
 2.40000E+00 0.00000E+00
 2.60000E+00 0.00000E+00
 2.80000E+00 0.00000E+00
 3.00000E+00 0.00000E+00
 3.20000E+00 0.00000E+00
 3.40000E+00 0.00000E+00
 3.60000E+00 0.00000E+00
 3.80000E+00 0.00000E+00
 4.00000E+00 0.00000E+00
 4.20000E+00 0.00000E+00
 4.40000E+00 2.43270E-01
 4.60000E+00 9.45709E-01
 4.80000E+00 1.34645E+00
 5.00000E+00 1.51697E+00
 5.50000E+00 1.58444E+00
 6.00000E+00 1.56812E+00
 6.50000E+00 1.47828E+00
 7.00000E+00 1.36260E+00
 7.50000E+00 1.30206E+00
 8.00000E+00 1.22597E+00
 8.50000E+00 1.07677E+00
 9.00000E+00 9.07257E-01
 9.50000E+00 7.35382E-01
 1.00000E+01 5.87477E-01
 1.10000E+01 3.92592E-01
 1.20000E+01 3.03535E-01
 1.30000E+01 2.66587E-01
 1.40000E+01 2.46350E-01
 1.50000E+01 2.32799E-01
 1.60000E+01 2.20892E-01
 1.70000E+01 2.10866E-01
 1.80000E+01 2.01819E-01
 1.90000E+01 1.92500E-01
 2.00000E+01 1.84846E-01
 2.10000E+01 1.76436E-01
 2.20000E+01 1.70182E-01
 2.30000E+01 1.63618E-01
 2.40000E+01 1.57304E-01
 2.50000E+01 1.52947E-01
 2.60000E+01 1.48154E-01
 2.70000E+01 1.42595E-01
 2.80000E+01 1.38431E-01
 2.90000E+01 1.35407E-01
 3.00000E+01 1.31837E-01
