# n + 208Pb: Gamma-ray intensity - 208Pb: Level 18 --> Level  1 - gamma energy    1.647349
# E-initial  =   4.261871 E-final=   2.614522
# E-threshold= 4.28254E+00
# # energies =    67
#    E           xs
 1.00000E-11 0.00000E+00
 2.53000E-08 0.00000E+00
 2.00000E-07 0.00000E+00
 1.00000E-06 0.00000E+00
 1.00000E-03 0.00000E+00
 2.00000E-03 0.00000E+00
 5.00000E-03 0.00000E+00
 1.00000E-02 0.00000E+00
 2.00000E-02 0.00000E+00
 5.00000E-02 0.00000E+00
 1.00000E-01 0.00000E+00
 2.00000E-01 0.00000E+00
 3.00000E-01 0.00000E+00
 4.00000E-01 0.00000E+00
 5.00000E-01 0.00000E+00
 7.50000E-01 0.00000E+00
 1.00000E+00 0.00000E+00
 1.20000E+00 0.00000E+00
 1.40000E+00 0.00000E+00
 1.60000E+00 0.00000E+00
 1.80000E+00 0.00000E+00
 2.00000E+00 0.00000E+00
 2.20000E+00 0.00000E+00
 2.40000E+00 0.00000E+00
 2.60000E+00 0.00000E+00
 2.80000E+00 0.00000E+00
 3.00000E+00 0.00000E+00
 3.20000E+00 0.00000E+00
 3.40000E+00 0.00000E+00
 3.60000E+00 0.00000E+00
 3.80000E+00 0.00000E+00
 4.00000E+00 0.00000E+00
 4.20000E+00 0.00000E+00
 4.40000E+00 1.48904E+01
 4.60000E+00 2.58015E+01
 4.80000E+00 3.21728E+01
 5.00000E+00 3.46133E+01
 5.50000E+00 3.29533E+01
 6.00000E+00 2.97295E+01
 6.50000E+00 2.70310E+01
 7.00000E+00 2.48091E+01
 7.50000E+00 2.32966E+01
 8.00000E+00 2.12029E+01
 8.50000E+00 1.79106E+01
 9.00000E+00 1.41743E+01
 9.50000E+00 1.05923E+01
 1.00000E+01 7.63086E+00
 1.10000E+01 3.87248E+00
 1.20000E+01 2.17879E+00
 1.30000E+01 1.47615E+00
 1.40000E+01 1.15924E+00
 1.50000E+01 1.00585E+00
 1.60000E+01 9.04722E-01
 1.70000E+01 8.43815E-01
 1.80000E+01 7.85580E-01
 1.90000E+01 7.40353E-01
 2.00000E+01 7.00373E-01
 2.10000E+01 6.58644E-01
 2.20000E+01 6.29680E-01
 2.30000E+01 5.92006E-01
 2.40000E+01 5.54473E-01
 2.50000E+01 5.25772E-01
 2.60000E+01 4.91554E-01
 2.70000E+01 4.68878E-01
 2.80000E+01 4.42597E-01
 2.90000E+01 4.28777E-01
 3.00000E+01 4.05546E-01
