# n + 208Pb: Gamma-ray intensity - 209Pb: Level  2 --> Level  0 - gamma energy    1.423000
# E-initial  =   1.423000 E-final=   0.000000
# E-threshold= 0.00000E+00
# # energies =    67
#    E           xs
 1.00000E-11 0.00000E+00
 2.53000E-08 0.00000E+00
 2.00000E-07 0.00000E+00
 1.00000E-06 0.00000E+00
 1.00000E-03 0.00000E+00
 2.00000E-03 0.00000E+00
 5.00000E-03 0.00000E+00
 1.00000E-02 0.00000E+00
 2.00000E-02 0.00000E+00
 5.00000E-02 3.30702E-11
 1.00000E-01 3.10065E-09
 2.00000E-01 1.11058E-07
 3.00000E-01 1.04636E-05
 4.00000E-01 3.59425E-05
 5.00000E-01 8.10953E-05
 7.50000E-01 2.45039E-04
 1.00000E+00 2.79761E-03
 1.20000E+00 5.44249E-03
 1.40000E+00 9.88255E-03
 1.60000E+00 1.52574E-02
 1.80000E+00 2.22261E-02
 2.00000E+00 3.24544E-02
 2.20000E+00 4.52333E-02
 2.40000E+00 6.21021E-02
 2.60000E+00 8.42637E-02
 2.80000E+00 1.03881E-01
 3.00000E+00 1.12996E-01
 3.20000E+00 1.23082E-01
 3.40000E+00 5.97100E-02
 3.60000E+00 4.34489E-02
 3.80000E+00 3.46286E-02
 4.00000E+00 2.58336E-02
 4.20000E+00 1.41052E-02
 4.40000E+00 1.08640E-02
 4.60000E+00 9.42798E-03
 4.80000E+00 1.88481E-02
 5.00000E+00 1.85399E-02
 5.50000E+00 2.17943E-02
 6.00000E+00 2.58057E-02
 6.50000E+00 3.15931E-02
 7.00000E+00 3.92813E-02
 7.50000E+00 4.74411E-02
 8.00000E+00 5.91767E-02
 8.50000E+00 7.38775E-02
 9.00000E+00 9.14958E-02
 9.50000E+00 1.11900E-01
 1.00000E+01 1.34165E-01
 1.10000E+01 1.74059E-01
 1.20000E+01 2.02086E-01
 1.30000E+01 2.27971E-01
 1.40000E+01 2.53934E-01
 1.50000E+01 2.68399E-01
 1.60000E+01 2.61762E-01
 1.70000E+01 2.38194E-01
 1.80000E+01 2.04360E-01
 1.90000E+01 1.70717E-01
 2.00000E+01 1.43135E-01
 2.10000E+01 1.19842E-01
 2.20000E+01 1.02863E-01
 2.30000E+01 8.84623E-02
 2.40000E+01 7.62743E-02
 2.50000E+01 6.87675E-02
 2.60000E+01 6.16123E-02
 2.70000E+01 5.56662E-02
 2.80000E+01 5.13809E-02
 2.90000E+01 4.83199E-02
 3.00000E+01 4.48889E-02
