# n + 208Pb   : (n,n')            Total
# Q-value    = 0.00000E+00
# E-threshold= 2.62720E+00
# # energies =    46
#     E          xs       gamma xs  xs/res.prod.xs
 1.00000E+00 0.00000E+00 0.00000E+00 0.00000E+00
 1.20000E+00 0.00000E+00 0.00000E+00 0.00000E+00
 1.40000E+00 0.00000E+00 0.00000E+00 0.00000E+00
 1.60000E+00 0.00000E+00 0.00000E+00 0.00000E+00
 1.80000E+00 0.00000E+00 0.00000E+00 0.00000E+00
 2.00000E+00 0.00000E+00 0.00000E+00 0.00000E+00
 2.20000E+00 0.00000E+00 0.00000E+00 0.00000E+00
 2.40000E+00 0.00000E+00 0.00000E+00 0.00000E+00
 2.60000E+00 0.00000E+00 0.00000E+00 0.00000E+00
 2.80000E+00 3.16503E+02 3.16503E+02 9.99523E-01
 3.00000E+00 5.14257E+02 5.14257E+02 9.99661E-01
 3.20000E+00 6.63534E+02 6.63534E+02 9.99683E-01
 3.40000E+00 8.73946E+02 1.01175E+03 9.99760E-01
 3.60000E+00 1.07081E+03 1.41090E+03 9.99781E-01
 3.80000E+00 1.25979E+03 1.86489E+03 9.99785E-01
 4.00000E+00 1.44285E+03 2.40893E+03 9.99790E-01
 4.20000E+00 1.69185E+03 3.18462E+03 9.99819E-01
 4.40000E+00 1.95879E+03 4.01260E+03 9.99851E-01
 4.60000E+00 2.14133E+03 4.64281E+03 9.99868E-01
 4.80000E+00 2.26191E+03 5.09742E+03 9.99867E-01
 5.00000E+00 2.35122E+03 5.47992E+03 9.99868E-01
 5.50000E+00 2.47727E+03 6.17856E+03 9.99869E-01
 6.00000E+00 2.51881E+03 6.66512E+03 9.99863E-01
 6.50000E+00 2.53153E+03 7.09935E+03 9.99854E-01
 7.00000E+00 2.54421E+03 7.55911E+03 9.99841E-01
 7.50000E+00 2.56657E+03 8.06713E+03 9.99826E-01
 8.00000E+00 2.46613E+03 8.21418E+03 9.99801E-01
 8.50000E+00 2.23272E+03 7.83251E+03 9.99757E-01
 9.00000E+00 1.91736E+03 7.00799E+03 9.99692E-01
 9.50000E+00 1.55946E+03 5.89241E+03 9.99592E-01
 1.00000E+01 1.22849E+03 4.73935E+03 9.99443E-01
 1.10000E+01 7.41409E+02 2.88553E+03 9.98957E-01
 1.20000E+01 4.73821E+02 1.78578E+03 9.98171E-01
 1.30000E+01 3.52179E+02 1.26637E+03 9.97129E-01
 1.40000E+01 2.94240E+02 1.02047E+03 9.96034E-01
 1.50000E+01 2.64454E+02 9.01219E+02 9.94976E-01
 1.60000E+01 2.45097E+02 8.31582E+02 9.93970E-01
 1.70000E+01 2.32632E+02 7.92006E+02 9.93037E-01
 1.80000E+01 2.20805E+02 7.50845E+02 9.92155E-01
 1.90000E+01 2.08506E+02 7.06092E+02 9.91410E-01
 2.00000E+01 1.99220E+02 6.73312E+02 9.90916E-01
 2.20000E+01 1.82773E+02 6.21285E+02 9.90979E-01
 2.40000E+01 1.65204E+02 5.58359E+02 9.92364E-01
 2.60000E+01 1.50729E+02 5.05716E+02 9.94049E-01
 2.80000E+01 1.37069E+02 4.53596E+02 9.95313E-01
 3.00000E+01 1.26297E+02 4.11089E+02 9.96055E-01
